index	attitude.roll	attitude.pitch	attitude.yaw	gravity.x	gravity.y	gravity.z	rotationRate.x	rotationRate.y	rotationRate.z	userAcceleration.x	userAcceleration.y	userAcceleration.z
0	2.4519823	1.2192302	-1.3754162	0.97488725	0.21386506	-0.056339327	1.803175	-0.681175	0.4631	0.06873658	-0.1475042	-0.037345685
1	-1.6442975	-0.2028908	0.8241877	0.9750323	0.19650419	-0.10007458	1.918125	-0.7041375	0.18645	0.3408698	-0.2184155	-0.052937653
2	-1.6863106	-0.18754987	0.7478265	0.97558933	0.18600875	-0.113770306	0.7016625	0.66605	0.02365	0.3779275	-2.748011E-4	0.33935133
3	-1.6886722	-0.18273214	0.7227451	0.9763369	0.19466634	-0.0904912	-0.094325	1.4752375	-0.7745375	0.79441226	0.01715322	0.242586
4	-1.6696961	-0.18711574	0.7140826	0.9748059	0.21361475	-0.0586492	-1.0021	1.343375	-1.046925	0.48004124	-0.004241663	0.062013112
5	-1.637734	-0.20482081	0.72221	0.9711323	0.23624957	-0.020136034	-1.599125	2.1168125	-1.0874875	0.18360777	-0.17091319	0.2926131
6	-1.5373124	-0.25203815	0.77592045	0.96430266	0.25829545	0.052164286	-1.8459375	3.7247374	-0.93953747	0.17453532	-0.2498398	0.50155133
7	-1.4557505	-0.26425558	0.82240915	0.94039154	0.27368262	0.20019695	-2.694175	3.4452	-0.7255875	0.16430262	0.1726018	-0.02394313
8	-1.3034577	-0.27510512	0.92986834	0.91384405	0.27440593	0.2981741	-0.94888747	0.8460375	-0.263725	-0.5503425	0.14475313	-0.09164506
9	-1.2614021	-0.27325344	0.9653643	0.90972435	0.2744217	0.310502	-0.160325	0.2462625	-0.17325	-0.5283788	0.211404	0.0727855
10	-1.2438371	-0.27250254	0.9788997	0.9073369	0.28622556	0.30680937	0.445225	-0.021724999	-0.6510625	-0.27236748	0.3221384	0.06179921
11	-1.2447546	-0.28152055	0.97452635	0.8984625	0.30359504	0.31608924	0.199375	0.9392625	-0.8171625	-0.2788906	0.3018025	-0.0028323445
12	-1.2180947	-0.31434137	0.9705004	0.88577765	0.32706293	0.32824534	0.9614	-0.097075	-0.3350875	0.038993027	-0.4781333	-0.059942607
13	-1.2294427	-0.33296132	0.93871623	0.89039475	0.33167523	0.3106545	1.3615249	-0.636075	0.3663	0.118580796	-0.55847955	-0.25326917
14	-1.252818	-0.32836163	0.9045954	0.9149933	0.30246782	0.2657401	0.820875	-1.5457749	1.85185	-0.18430524	-0.1445626	0.41560552
15	-1.2774401	-0.31016836	0.87241995	0.940122	0.26119906	0.21740016	0.4409625	-2.885575	2.5361874	-0.15744613	-0.2687373	0.18952645
16	-1.3266245	-0.271269	0.84613985	0.96659887	0.20607822	0.1501171	-0.046475	-4.248475	3.1736374	0.025755914	-0.35817304	0.15283395
17	-1.3935552	-0.21855348	0.8318974	0.9847874	0.14381619	0.093955666	-1.2266375	-1.04225	2.4319625	0.012261568	-0.22730243	-0.09731958
18	-1.4695808	-0.15290375	0.82341754	0.99133617	0.09242903	0.089592546	-0.4466	-0.5858875	2.1616375	0.3467831	0.19442113	0.17237993
19	-1.4763244	-0.09933947	0.8426816	0.9961297	0.05506363	0.063331366	0.3133625	-1.1752125	1.7444625	0.5668673	0.4483003	-0.054569896
20	-1.4997588	-0.059470624	0.8399043	0.9979737	0.025532672	0.052090786	0.1898875	-0.3587375	1.420925	0.51589483	0.5854765	-0.2898125
21	-1.5152906	-0.02835281	0.83354074	0.9988972	-0.0017869924	0.038968246	0.575025	-0.8130375	1.705	-0.044569932	0.2605026	0.03820301
22	-1.5265455	-0.002085568	0.8255975	0.99843717	-0.04083168	0.027805246	0.7964	-0.3691875	2.2328625	-0.20404881	-0.032149967	0.0038920008
23	-1.5400058	0.034300555	0.80939573	0.99468404	-0.09666976	0.023999719	0.7634	-0.3430625	3.0375125	-0.34330785	-0.004140639	-0.032455374
24	-1.5527999	0.14690147	0.7738751	0.9872889	-0.15615281	0.013933964	0.8507125	-0.6444625	2.9140375	0.096197344	0.30916506	0.105225064
25	-1.5571587	0.20092015	0.7587503	0.97806704	-0.20623274	0.013027927	0.45595	0.1071125	2.2988625	0.30338556	0.4259116	0.0042962325
26	-1.5515542	0.23981166	0.7468812	0.9697136	-0.2420657	0.019408688	0.84645	0.1384625	1.9370999	0.030286402	0.193029	-0.011350584
27	-1.5439212	0.2785001	0.7232599	0.9595959	-0.27899888	0.025547536	1.4136375	-0.216425	1.8657374	0.013997333	-0.14087878	0.16241883
28	-1.5375702	0.31252754	0.68931437	0.94992083	-0.30972624	0.032200005	1.65	-0.1232	1.502875	0.36965105	-0.2905796	0.23385505
29	-1.5375702	0.31252754	0.68931437	0.94300354	-0.32962027	0.03758267	1.4201	-0.236225	0.8749125	0.3589384	-0.03143477	0.035613053
30	-1.5222278	0.34475946	0.62669486	0.93978924	-0.33399546	0.06753081	0.95823747	0.8105625	0.0715	0.13707624	0.5031086	-0.04581827
31	-1.5033678	0.34593165	0.6071301	0.93697447	-0.33579752	0.0929301	1.5200624	0.8157875	0.3716625	0.32643533	0.13488008	-0.09201267
32	-1.4772245	0.3467221	0.5820272	0.9312105	-0.3468446	0.1089171	2.0840874	-0.268675	1.078275	0.21109837	-0.09821654	-0.06009447
33	-1.4552828	0.35535178	0.5427946	0.9219796	-0.36959985	0.11254614	1.2263625	-0.3147375	1.631575	0.21349442	0.3483919	-0.093998745
34	-1.4486088	0.37655059	0.50030476	0.9092064	-0.39836213	0.11818806	0.0760375	0.2453	1.665675	0.19548777	0.5896924	0.2015826
35	-1.43258	0.43633893	0.47786266	0.8805325	-0.4471753	0.15496503	-1.318075	2.5345376	0.8611625	0.40458983	0.2787808	0.01200745
36	-1.4045095	0.46412072	0.49739087	0.8751648	-0.45046902	0.17458871	-0.3752375	0.4169	-0.4052125	0.09038567	0.10724271	0.042230867
37	-1.3730854	0.47490883	0.5183849	0.8709822	-0.4580649	0.17573719	-1.0478874	0.5478	0.5726875	-0.6488568	-0.43592587	-0.11691456
38	-1.3702713	0.47763926	0.52775306	0.85420966	-0.48856393	0.17592089	-2.021525	1.2188	1.6358374	-0.5153717	-0.5753504	-0.044116598
39	-1.356927	0.5540644	0.59552544	0.78761387	-0.58588177	0.18900846	-1.96735	1.4909124	2.5223	0.62839526	-0.23685527	-0.33488002
40	-1.3366168	0.6169468	0.63556653	0.76109236	-0.6247729	0.17237777	-0.7253125	-1.1626999	2.0359626	0.627088	-0.053208753	0.08766811
41	-1.3399643	0.66970795	0.6589496	0.7495189	-0.6459566	0.14240341	-1.0616375	-1.0935374	0.751575	0.6789215	-0.07127583	0.11172502
42	-1.372513	0.7032241	0.6663135	0.7432411	-0.6563714	0.1268329	-2.416425	1.716	0.36313748	0.5889761	0.07002584	-0.16975339
43	-1.399347	0.7178661	0.704964	0.7286648	-0.673528	0.12134567	-2.8006	1.871925	1.0825375	0.16358294	0.11400204	-0.08108573
44	-1.4031947	0.73702633	0.7749599	0.7098078	-0.6964622	0.10212849	-0.5775	-0.311575	1.1825	-0.17983837	0.015621204	0.21010391
45	-1.4244232	0.76995283	0.83061486	0.699511	-0.7076033	0.09643437	0.3207875	-1.122825	0.5185125	-0.20032138	-0.2285894	-0.038131617
46	-1.429883	0.78937495	0.82153606	0.69529086	-0.71435916	0.074691765	-0.0400125	-1.6880875	0.2778875	-0.2829514	-0.14690992	-0.09437067
47	-1.4548047	0.7997173	0.8178696	0.68904406	-0.7228078	0.04565372	-0.5072375	-1.9152375	0.866525	-0.28037432	-5.408043E-4	0.14741968
48	-1.4921851	0.8087507	0.819984	0.666953	-0.7443826	0.019628912	-0.7051	-0.8716125	1.8753625	-0.22363496	0.04081993	0.23307751
49	-1.5329536	0.83553916	0.8380876	0.63648194	-0.77083516	0.0045966296	0.143	-1.577125	1.8987374	-0.0320018	0.07144673	0.19999054
50	-1.5561054	0.87617266	0.8448034	0.6178848	-0.78532493	-0.02829527	0.053625	-3.4247124	0.766425	0.27558616	0.015798911	-0.026750604
51	-1.5990052	0.9049261	0.8393281	0.611796	-0.7877306	-0.0671046	0.153725	-2.81655	-0.036025	0.22754654	-0.10503697	0.122762084
52	-1.6663814	0.91278654	0.8379056	0.61171037	-0.78525966	-0.09216724	0.0653125	-2.10155	-0.2552	0.25475755	-0.10659045	0.06759538
53	-1.7098684	0.90990293	0.8309494	0.6111146	-0.7822489	-0.11807968	-0.1709125	-1.8126625	-0.11055	0.14617898	-0.02804162	-0.06326589
54	-1.7511324	0.9045084	0.8315623	0.6047678	-0.7833686	-0.14109084	-0.127325	-1.97175	-0.01155	-0.10649567	-0.05374149	0.039867595
55	-1.7887052	0.9056507	0.835223	0.5992479	-0.7820177	-0.1693143	0.02805	-2.3329625	-0.1456125	-0.23747417	-0.028991455	0.22884029
56	-1.8341326	0.90391886	0.8358139	0.590265	-0.7839358	-0.19065382	-0.06765	-1.4986125	0.356675	-0.19801727	0.13725385	0.2443694
57	-1.9070038	0.9138051	0.843048	0.5568033	-0.80209565	-0.21431236	0.28985	-0.8716125	1.0197	-0.13987665	0.26825774	0.097905636
58	-1.93256	0.9308846	0.85123795	0.53711385	-0.81452906	-0.21764281	0.2525875	-0.5995	0.9898625	-0.1767622	0.12686852	0.03140427
59	-1.9511559	0.95222545	0.8528171	0.5195452	-0.8252956	-0.2197213	0.2388375	-0.6329125	0.87285	-0.15338315	0.049959213	-0.022174725
60	-1.9662148	0.97158	0.8588553	0.50381875	-0.83377606	-0.22427967	0.14093749	-0.6435	0.6950625	0.014025331	0.086268395	-0.064512394
61	-1.9847344	0.9877493	0.8635665	0.50292695	-0.8327032	-0.23019007	-0.1464375	-0.16293749	0.2567125	0.20919846	0.19967562	-0.05318914
62	-1.9975286	0.9885325	0.86848134	0.499292	-0.83078134	-0.24459606	-0.68282497	-0.78265	0.32587498	0.1904175	0.35697398	-0.18037334
63	-2.0172877	0.9859668	0.88476694	0.49272093	-0.8244557	-0.27715656	-1.091475	-1.4525499	0.0374	0.20891519	0.33496025	-0.33243057
64	-2.0701034	0.9770933	0.9185514	0.4899857	-0.81441665	-0.30976918	-1.11705	-0.5702125	-0.3647875	0.3635311	-0.03440596	-0.31419107
65	-2.128036	0.9615594	0.95605063	0.49837515	-0.80626565	-0.31760886	-0.549725	0.45045	-0.2127125	0.2611508	-0.05775577	-0.10268165
66	-2.1398418	0.94547015	0.9718672	0.50145113	-0.8049319	-0.31614685	-0.034649998	0.21807499	0.19607499	0.11934397	-0.009945821	-0.06825683
67	-2.135372	0.94005823	0.9783902	0.4914066	-0.81027627	-0.31825936	-0.0229625	-0.322025	0.7909	0.1113457	-0.21510595	-0.26247463
68	-2.1427665	0.9465639	0.98610514	0.46971214	-0.8211349	-0.32314843	-0.0389125	-0.476025	1.288925	0.096144125	-0.18345222	-0.01151518
69	-2.1677077	0.9633561	1.0048474	0.44682288	-0.8322479	-0.32715476	-0.0741125	-0.495825	1.0154375	0.18570007	-0.14103958	0.41603854
70	-2.1977077	0.9844737	1.0305285	0.44147673	-0.83861	-0.3180388	0.6666	0.8303625	0.0928125	0.24058752	-0.3483472	0.47839043
71	-2.1684775	1.0051011	1.0165969	0.4291417	-0.85426825	-0.2921996	0.3207875	-0.1953875	1.19845	-0.38327014	-0.102918275	0.20362164
72	-2.166143	1.0233924	1.0215878	0.3977252	-0.8744236	-0.27661374	0.952875	-0.311575	1.683825	-0.15602794	-0.015897488	0.5132039
73	-2.176964	1.0598165	1.0273492	0.37992564	-0.89056176	-0.24874438	1.2508374	0.8419125	1.00265	0.2636065	0.07027121	0.6386526
74	-2.1609316	1.0963492	1.014349	0.3784464	-0.9034592	-0.19964217	2.244825	1.8814125	0.437525	0.25438234	0.072465345	0.56580424
75	-1.9574515	1.1574482	0.855539	0.35537633	-0.9297216	-0.09296621	2.832225	-1.913175	0.847275	-0.33906138	-0.61564535	-0.23649862
76	-1.8462837	1.1914763	0.7182577	0.3387664	-0.93855643	-0.060549077	2.1586125	-1.727825	0.570625	-0.19911808	-0.3475751	-0.07828885
77	-1.6899815	1.233218	0.47964552	0.33169398	-0.94232476	-0.03633879	1.425325	-0.7711	0.1662375	0.0512877	-0.18825628	-0.017789649
78	-1.6899815	1.233218	0.47964552	0.3369054	-0.9410699	-0.014118141	0.7772875	0.8503	-0.3658875	0.19336984	0.022920068	0.12370528
79	-1.6212398	1.2326341	0.40022603	0.35373893	-0.93496275	0.0055390745	0.1951125	2.065525	-1.1427625	0.13841702	0.27461106	0.14747316
80	-1.560936	1.2189983	0.36719784	0.38225946	-0.92337555	0.023931552	0.38775	1.5191	-1.7078875	-0.0050882073	0.35069966	0.03978404
81	-1.5127956	1.1904511	0.35738072	0.40886757	-0.9113426	0.039988864	0.11	1.1611875	-1.2428625	-0.09805718	0.19024168	0.0014943175
82	-1.4727527	1.1576885	0.34403366	0.41595578	-0.90795934	0.043677606	-0.1123375	0.5561875	0.225775	-0.013402259	0.050054193	-0.08679687
83	-1.4621783	1.1420507	0.35353896	0.40224144	-0.9137507	0.05077934	0.363275	0.5539875	1.3091375	0.23985335	0.11252744	0.0024316688
84	-1.4479512	1.1510378	0.34497455	0.3800106	-0.92229664	0.065404244	0.2536875	1.3077625	1.222925	0.24862854	0.065415934	-0.0071014953
85	-1.4059515	1.1730667	0.31963372	0.3623168	-0.9285866	0.07596467	0.2451625	0.7937875	0.6334625	-0.032958973	0.09097197	-0.18013898
86	-1.3660152	1.1926135	0.300718	0.3539632	-0.93058836	0.089624666	0.5049	1.1108625	0.31845	-0.09688371	0.14159754	-0.17402834
87	-1.3285995	1.1999046	0.2775708	0.3488519	-0.93104106	0.10383599	0.1579875	1.716	0.40039998	0.16919093	0.053869862	-0.13013569
88	-1.2867016	1.2003458	0.26050568	0.3389103	-0.93381834	0.111536786	-0.143275	1.3695	0.54725	0.34682363	0.06276324	-0.12560406
89	-1.2534232	1.2069595	0.2615249	0.33353615	-0.934387	0.12244029	0.72627497	-0.119075	0.1034	0.37421614	-0.02260072	0.04158111
90	-1.2208849	1.2121187	0.24471061	0.35554102	-0.92298937	0.14490774	2.9035876	-3.5481875	-1.3428249	0.22844984	-0.021765938	0.13724822
91	-1.1855261	1.1920444	0.1745615	0.39696795	-0.8979699	0.18810575	3.6124	-1.6462874	-1.9025875	0.01465285	-0.13984355	-0.048962023
92	-1.1385927	1.1354771	0.05197557	0.4146992	-0.8851562	0.20938116	-0.91162497	1.0377125	-0.262625	0.019857375	-0.35307005	-0.9646258
93	-1.0924497	1.0897585	-0.00640404	0.40398642	-0.89512753	0.18670517	-2.203575	1.9190875	0.1907125	0.4426955	-0.27306825	-0.08834126
94	-1.1612244	1.1206084	0.14361914	0.42593518	-0.8921125	0.14843066	-0.926475	-0.5146625	-1.2918125	0.5259456	0.009130872	-0.39297193
95	-1.2142881	1.1110557	0.21547724	0.45290643	-0.8834617	0.116998576	-1.157475	-1.97285	-1.12255	0.36564097	-0.1340766	-0.187442
96	-1.2898504	1.0917422	0.2744425	0.46989608	-0.8797862	0.06701701	-1.86615	-2.3434124	-0.508475	0.24030273	-0.27668172	-0.0027968248
97	-1.3953553	1.0812156	0.34319195	0.47999272	-0.8768296	0.009708664	-2.4355376	-1.6776375	-0.509575	0.03457915	-0.27229878	0.05033721
98	-1.5163326	1.0762084	0.43169305	0.48804218	-0.8710435	-0.049145777	-3.0996625	-0.4466	-0.5531625	-0.18334799	-0.318559	0.0813629
99	-1.6394358	1.066367	0.5440371	0.49936524	-0.8600495	-0.10132523	-3.2454126	0.7634	-0.722425	-0.18173528	-0.46043977	0.25045368
100	-1.7476563	1.0469874	0.66927755	0.5155233	-0.8442546	-0.14417736	-2.9613376	0.726825	-0.89375	-0.14446826	-0.49233565	0.3137951
101	-1.8260224	1.0183629	0.7812629	0.53092486	-0.8255454	-0.18950218	-2.760175	-0.33467498	-0.9458625	-0.074655734	-0.36650354	0.20437986
102	-1.8954349	0.98509973	0.8728904	0.544958	-0.802667	-0.24096489	-3.119875	-0.4005375	-1.015025	0.07022547	-0.096002676	0.17613308
103	-1.9693048	0.947439	0.950575	0.56536317	-0.77123535	-0.29133788	-3.7519624	0.2358125	-0.9310125	0.22220567	0.07429341	0.3088761
104	-2.0312462	0.8981779	1.0312521	0.57817686	-0.7441338	-0.3336066	-2.112	2.75E-4	-0.6798	0.2792085	-0.107854046	0.33605307
105	-2.0876021	0.85209244	1.1089975	0.58556724	-0.7300358	-0.35139078	-0.534875	-0.84755	-0.590425	0.18120648	-0.08606507	0.2902287
106	-2.1081526	0.8268914	1.1322417	0.5778148	-0.72677207	-0.37047222	0.7783875	-3.0342126	-0.53295	-0.16425212	-0.042753916	0.24753644
107	-2.13257	0.81836617	1.1245731	0.5580534	-0.7278759	-0.3976065	0.7337	-3.09705	-0.63085	-0.37008703	0.166408	0.23583278
108	-2.1810756	0.8203115	1.0881253	0.55663407	-0.7193067	-0.41481724	-0.3433375	-0.902	-0.8129	-0.25908053	0.28352687	0.3645573
109	-2.2093103	0.8117376	1.0723135	0.56098753	-0.7084583	-0.4274307	-0.0474375	-0.983675	-0.737275	-0.29023826	0.17462039	0.51825637
110	-2.220443	0.7950307	1.0642151	0.5581512	-0.70686835	-0.43373019	0.6293375	-1.0223125	-0.2435125	-0.34602582	0.18882556	0.4762378
111	-2.230841	0.7887317	1.0490787	0.55049795	-0.71561354	-0.42914668	1.1039875	-0.7209125	0.1577125	-0.27659884	0.2129683	0.40192956
112	-2.2345061	0.7981364	1.0291014	0.5427542	-0.7289906	-0.41630268	1.3552	-0.39325	0.2556125	-0.2356135	0.1609019	0.28235772
113	-2.2290852	0.8163784	1.004156	0.53703266	-0.74445087	-0.39586025	1.4328874	0.1720125	0.3993	-0.30931094	0.14659154	0.092190534
114	-2.2128706	0.8385413	0.97669524	0.5331063	-0.7607522	-0.36928493	1.3817375	0.7132125	0.5652625	-0.29212776	0.14434546	-0.068329744
115	-2.185689	0.862908	0.9502053	0.52565295	-0.77646554	-0.34656498	1.1636626	0.9455875	0.6546375	-0.13166215	0.017948713	-0.21632493
116	-2.162921	0.8876096	0.93590575	0.52354985	-0.7866486	-0.3261855	0.6708625	0.29865	0.2055625	0.23741342	-0.27186823	-0.5179583
117	-2.133076	0.90725726	0.9176955	0.52227896	-0.7865447	-0.3284658	-0.2432375	-0.615175	-0.131725	0.55651313	-0.414067	-0.90333855
118	-2.1288617	0.91095805	0.90944254	0.52529866	-0.78090876	-0.33698705	-0.3337125	0.2085875	-0.411675	0.5368879	-0.19198109	-0.5047102
119	-2.142519	0.9033046	0.9148003	0.5407027	-0.77298254	-0.33084095	-0.141075	0.951775	-0.5872625	0.29426676	0.0025391455	-6.575346E-4
120	-2.1264617	0.8909326	0.9113311	0.55452	-0.7588463	-0.34055376	0.011	0.0286	-0.517	0.0037827136	0.19023775	-0.25505787
121	-2.124255	0.86798275	0.91662496	0.555006	-0.75724584	-0.34331325	0.4059	-0.5995	-0.0625625	-0.14246775	0.37956998	-0.2850201
122	-2.1248512	0.862522	0.90798324	0.5524338	-0.762074	-0.3367157	0.7932375	0.21065	0.1225125	-0.101057634	0.13057555	0.12315301
123	-2.083808	0.8827996	0.8668641	0.5620479	-0.7792609	-0.27599317	-0.0581625	0.389675	0.077825	0.13978697	-0.8185985	0.18374546
124	-2.0291464	0.8975494	0.8416638	0.5615924	-0.76877713	-0.30481654	-1.206425	0.1175625	-0.2743125	0.21811712	-1.2819873	-0.6255657
125	-2.0636485	0.88527274	0.8694335	0.56948733	-0.77099967	-0.28383297	0.6612375	1.6427125	0.1502875	-0.60974723	-0.4022878	0.6510042
126	-2.0451596	0.882476	0.8751554	0.5644906	-0.784721	-0.25471604	0.7869125	1.2354375	1.1070125	-0.78069854	0.3147975	0.5881564
127	-2.002978	0.8998146	0.85852945	0.5501718	-0.80201614	-0.23108038	0.413325	1.1433125	1.2835625	-0.22061524	0.2540039	0.6407593
128	-1.9738213	0.9282167	0.8537313	0.5362137	-0.8164001	-0.21279754	0.6485875	0.1216875	0.8888	0.17418389	0.0053909332	0.7882257
129	-1.9515076	0.95413905	0.8494894	0.5302862	-0.82428145	-0.19665806	1.4243625	-0.32945	-0.0295625	0.45381165	-0.15931182	0.68545014
130	-1.9342781	0.9709186	0.82412755	0.53938764	-0.8274906	-0.15374468	1.8489625	1.9515375	-0.2531375	0.57651454	-0.13561335	-0.04666816
131	-1.8716925	0.97755885	0.763724	0.5423712	-0.8311811	-0.11953782	0.9827125	0.921525	0.209825	0.09799572	0.055844676	-0.6342848
132	-1.798686	0.98344946	0.71358615	0.5402246	-0.8352225	-0.09938719	0.8762875	0.462	0.0991375	-0.17580567	0.038892217	-0.046285592
133	-1.7607715	0.99152845	0.6839827	0.53702223	-0.84009457	-0.07186831	1.0401875	0.2745875	0.147125	-0.17208341	0.010843792	0.35699064
134	-1.7119162	1.0002385	0.6398675	0.5341784	-0.84365684	-0.04705425	1.3476375	0.0924	0.21725	-0.10329153	0.16333573	0.3893631
135	-1.668019	1.0065349	0.593529	0.53106105	-0.8467455	-0.017708868	1.4839	0.542575	0.227975	0.024290647	0.25183722	0.10241835
136	-1.6167151	1.0125376	0.53854716	0.5319882	-0.8463213	0.0067810495	1.2252625	0.628375	0.1716	0.112247266	0.14223872	-0.1902673
137	-1.5689559	1.0122547	0.49325666	0.53158176	-0.8461096	0.028922154	0.9986625	0.488125	0.065175	0.13121639	0.0036019918	-0.1235246
138	-1.5246589	1.0125105	0.4531826	0.5303729	-0.8457947	0.05151026	0.952875	0.6127	0.12045	0.036492527	-0.015979052	0.0029239936
139	-1.4823167	1.0117042	0.41576174	0.5241406	-0.8478464	0.07583489	1.0604	0.573925	0.2960375	-0.08571553	-0.011282035	0.015495384
140	-1.4361622	1.0148467	0.376219	0.5145138	-0.8512211	0.10007789	1.17535	0.4566375	0.51205	-0.11390215	-0.0032131337	-0.046362296
141	-1.3883319	1.0204321	0.33213952	0.5040122	-0.8547948	0.1208905	1.0390875	0.68805	0.61105	8.807148E-4	0.0442902	-0.207022
142	-1.3453952	1.0268049	0.29088283	0.4990178	-0.85602194	0.13238187	0.5676	1.0146124	0.54614997	0.15521768	0.09995158	-0.27825344
143	-1.3195142	1.0289644	0.27267706	0.49115226	-0.85844207	0.14547801	0.134475	0.9120375	0.3641	0.2624716	0.040903877	-0.11745049
144	-1.2865276	1.0340081	0.25611663	0.48591518	-0.8596478	0.15559252	0.0334125	1.0241	0.1076625	0.37708178	-0.051667176	-0.065791294
145	-1.2637405	1.0374564	0.25097504	0.48337346	-0.8595239	0.16396947	-0.07095	0.8586875	0.02145	0.3764584	-0.06575132	-0.20219576
146	-1.2447386	1.0374588	0.2517268	0.48236734	-0.85993254	0.16478756	-0.2847625	0.44	0.0385	0.31957453	-0.040877823	-0.22523098
147	-1.2388979	1.0378351	0.2597317	0.48168775	-0.8610721	0.16077527	-0.468875	0.389675	0.02365	0.33788407	-0.06931015	-0.23152451
148	-1.244252	1.039874	0.27460057	0.48217255	-0.8622451	0.15284038	-0.56787497	0.0589875	-0.0614625	0.40376014	-0.17486498	-0.32979757
149	-1.2568308	1.0424968	0.29522336	0.48582885	-0.86285734	0.13698433	-0.829675	-0.6183375	-0.149875	0.5058072	-0.23867172	-0.4110975
150	-1.2833183	1.0438831	0.32154614	0.494334	-0.8623293	0.10648433	-1.2733876	-1.3960375	-0.4074125	0.5557118	-0.09149333	-0.250414
151	-1.3381132	1.0439008	0.36339027	0.50891304	-0.8582805	0.060659073	-1.8002875	-2.0178125	-0.6681125	0.41238666	-0.01522107	-0.095016874
152	-1.4245462	1.037546	0.42431426	0.52536714	-0.8504734	-0.0012003256	-2.5920124	-2.05865	-0.94159997	0.16281329	-0.039327834	-0.07535931
153	-1.5403169	1.0249485	0.510051	0.5434893	-0.8362832	-0.06758068	-3.0559375	-1.425325	-1.3002	-0.052357785	-0.21906851	0.2067244
154	-1.6643785	1.0021236	0.6119388	0.5644018	-0.81550926	-0.12534818	-3.282675	0.0369875	-1.3704625	-0.19039567	-0.41007176	0.36235124
155	-1.7685442	0.9672042	0.716492	0.5858147	-0.7918616	-0.17056866	-3.0889375	0.4890875	-1.2375	-0.246778	-0.6014105	0.15283166
156	-1.8396732	0.92744935	0.8124149	0.6043203	-0.7660201	-0.21754766	-3.07615	-0.2121625	-1.1268125	-0.08332639	-0.6355089	-0.13291106
157	-1.9007709	0.8863951	0.8972862	0.61249304	-0.74213743	-0.270927	-1.991825	-2.0493	-0.8894875	0.07354671	-0.5503244	0.3187405
158	-1.9697436	0.8475557	0.9658919	0.6123549	-0.7228597	-0.31908005	-1.3596	-2.08175	-0.885225	0.22525977	-0.43850124	0.4680097
159	-2.0375762	0.8181901	0.997916	0.6176623	-0.70156294	-0.35442904	-1.319175	-1.079925	-1.0949125	0.24288815	-0.118207686	0.259322
160	-2.084467	0.7887849	1.0172099	0.6339744	-0.67613226	-0.37448427	-0.98285	-0.5911125	-1.3556125	0.14533758	0.16562766	0.3169919
161	-2.101766	0.7539799	1.024352	0.646278	-0.6532705	-0.39354724	-0.537075	-0.961675	-1.3066624	-0.042807095	0.20383622	0.35236987
162	-2.1149828	0.7219951	1.0236734	0.65282047	-0.636347	-0.4101275	-0.17407499	-1.004575	-1.001275	-0.2966584	0.13634698	0.36456174
163	-2.1293101	0.69756174	1.015453	0.6553918	-0.6256644	-0.4222823	0.166375	-0.9878	-0.786225	-0.4766915	0.1079274	0.43298566
164	-2.1414666	0.6819368	1.0030733	0.6561271	-0.62000924	-0.4294217	0.3058	-0.67485	-0.4797375	-0.6144299	0.14182882	0.47631773
165	-2.1499007	0.67302066	0.9889044	0.65374607	-0.6213591	-0.43109864	0.76669997	-0.702075	-0.17325	-0.6425381	0.15999825	0.5760527
166	-2.1540265	0.6721863	0.97307175	0.6477815	-0.6318098	-0.4248684	1.17315	-0.3964125	0.2960375	-0.62025857	0.15066294	0.5059082
167	-2.1534264	0.6825325	0.95278555	0.6376982	-0.6516686	-0.40986183	1.5307875	-0.1357125	0.8228	-0.5827593	0.20416096	0.32178843
168	-2.1456764	0.7052959	0.9311352	0.62382025	-0.68059796	-0.3833435	2.1330376	0.2514875	1.2527624	-0.42851442	0.26775393	0.25643218
169	-2.129053	0.74078184	0.905637	0.607194	-0.7156315	-0.34424406	2.3076625	0.6535375	1.5624125	-0.06743867	0.172711	0.10020737
170	-2.0619817	0.8337659	0.8388585	0.5842641	-0.74769187	-0.31449938	-0.3795	-0.9950875	-0.15619999	0.91909987	-0.94466287	-1.413941
171	-2.0731874	0.83737916	0.83532315	0.62132496	-0.7257518	-0.29420507	-0.0889625	2.6800125	-0.7117	9.992192E-4	0.117387876	0.11408274
172	-2.0280874	0.81876224	0.831237	0.6377254	-0.7177211	-0.27838817	-0.2613875	0.55935	-0.4797375	-0.19174682	0.18408199	-0.085021615
173	-1.9853272	0.8064644	0.8275728	0.63866514	-0.71282077	-0.28863564	-0.5550875	-0.5126	-0.0636625	0.060004584	-0.36964104	-0.248872
174	-2.002222	0.795141	0.84560263	0.64007074	-0.7118655	-0.28787863	-0.617925	0.3488375	-0.020075	0.037605096	-0.57763	0.39674714
175	-1.9928122	0.7966845	0.8516992	0.6379343	-0.7109709	-0.29475036	-0.370975	0.0589875	0.0906125	-0.39064074	-0.42837164	0.037762586
176	-2.0024958	0.7943747	0.8692382	0.63302475	-0.7226935	-0.27624473	0.623975	1.546325	0.84947497	-0.84759665	-0.07291812	0.44668815
177	-1.991692	0.80565333	0.8707044	0.62212574	-0.7446847	-0.2402523	0.496375	1.7975374	1.5422	-0.43691173	0.06578564	0.7145642
178	-1.9482167	0.8351001	0.862822	0.6029482	-0.7680542	-0.21415845	0.7007	0.6116	1.582625	0.038137395	-0.15232807	0.85992295
179	-1.916315	0.870317	0.8614704	0.58414227	-0.7872129	-0.19593608	1.5211625	-0.3817	0.9004875	0.34990975	-0.2672214	0.7728015
180	-1.9001853	0.9027617	0.8442366	0.5804634	-0.79961497	-0.15164179	2.1511874	2.1190126	0.3119875	0.56571394	-0.15614954	0.06632068
181	-1.8503326	0.92552716	0.791513	0.58065975	-0.8065774	-0.10762984	1.1114125	1.1380875	0.3205125	0.2635757	0.06977313	-0.758731
182	-1.7667029	0.93894786	0.7368487	0.5785234	-0.81008726	-0.091577955	0.7783875	0.250525	0.1023	-0.03162738	0.0711423	-0.12880431
183	-1.6862602	0.95227045	0.6693771	0.57824004	-0.8147981	-0.03255209	1.1583	0.5487625	0.064075	-0.15366818	0.1278409	0.34356126
184	-1.637222	0.95481324	0.6282978	0.57666665	-0.8165425	-0.005596931	1.2093124	0.628375	0.1555125	-0.12579508	0.20940183	0.11446544
185	-1.5913372	0.95761144	0.5864639	0.57323444	-0.8186926	0.02149533	1.279575	0.5478	0.2695	-0.047653433	0.14590973	-0.06533325
186	-1.5442023	0.96103686	0.54360217	0.5703226	-0.8199707	0.041198127	1.2689875	0.5258	0.2789875	0.024172824	0.020995174	-0.10969967
187	-1.4768306	0.9681376	0.47761288	0.5570125	-0.82631314	0.07912746	0.952875	0.4756125	0.4258375	-0.115926884	0.023362104	-0.11032012
188	-1.3969965	0.9807344	0.40496635	0.5417435	-0.8313471	0.12121542	1.0784125	0.8534625	0.6056875	0.10882226	0.066714086	-0.12141419
189	-1.3624638	0.98223656	0.37336242	0.5318322	-0.83408344	0.14414108	0.7869125	0.908875	0.5589375	0.24451338	0.03143815	-0.27686277
190	-1.3160797	0.9872652	0.33768058	0.5239228	-0.8371463	0.15494579	0.282425	0.551925	0.5333625	0.19086313	0.05274261	-0.23373784
191	-1.2877679	0.99233574	0.31884575	0.51614934	-0.84055185	0.16241878	0.1057375	0.68488747	0.3843125	0.25530323	-0.006848762	-0.1399876
192	-1.2695416	0.9990656	0.30952772	0.5108355	-0.84241605	0.16940898	0.037675	0.4838625	0.2215125	0.38804826	-0.02883771	-0.19468422
193	-1.2523152	1.0031979	0.30441824	0.5094927	-0.8434398	0.16835523	-0.10065	-0.128425	0.1566125	0.3893911	0.036819022	-0.15204024
194	-1.2491442	1.0051882	0.30514404	0.51049334	-0.8441271	0.1617506	-0.2827	-0.259325	0.0353375	0.35739654	-0.010108364	-0.17317262
195	-1.2591413	1.0067722	0.3109794	0.51375043	-0.84445095	0.14926705	-0.64556247	-0.319	-0.215875	0.37320676	-0.19703221	-0.34182057
196	-1.2796501	1.0081091	0.3281341	0.5222323	-0.8426694	0.12844859	-0.98931247	-0.83709997	-0.4296875	0.4281194	-0.3201287	-0.41835684
197	-1.3157699	1.0055561	0.3592892	0.5345484	-0.83977485	0.09139896	-1.4895375	-1.6765375	-0.606375	0.41610909	-0.18357374	-0.24389131
198	-1.3796978	1.0010041	0.40700877	0.5504969	-0.83360773	0.036995586	-2.1503625	-2.247025	-0.804375	0.30791295	-0.13122402	-0.108448185
199	-1.4747885	0.99124575	0.47357488	0.5668426	-0.8228794	-0.029603442	-2.6910124	-2.12465	-1.1001375	0.12234698	-0.18028575	0.1020805
200	-1.5924237	0.9749632	0.56052846	0.5857998	-0.804567	-0.09395637	-3.0635	-1.178375	-1.3778875	-0.015264669	-0.3457847	0.37173927
201	-1.7948471	0.9088478	0.751218	0.6283929	-0.7528342	-0.1941144	-3.575275	0.9351375	-1.277925	-0.23042654	-0.8220894	-0.13657367
202	-1.8577865	0.8660365	0.8501969	0.6468874	-0.72377837	-0.23874424	-3.1634624	0.0149875	-1.015025	-0.03801894	-0.75420326	-0.0829683
203	-1.9110895	0.8217331	0.9388021	0.6493164	-0.7037707	-0.28707483	-1.5511374	-2.1916125	-0.6180625	-0.0011970993	-0.5522997	0.58932257
204	-1.9709681	0.7888578	0.9988178	0.6456339	-0.68788904	-0.33057976	-1.2681625	-1.8535	-0.7330125	0.12756185	-0.35431284	0.44383666
205	-2.0653472	0.7428884	1.0379077	0.66229427	-0.6483787	-0.37455124	-0.85415	-0.3733125	-1.1171875	0.0034549548	0.19558047	0.3877011
206	-2.0925636	0.6880368	1.051265	0.68044406	-0.61393166	-0.39925048	-0.1964875	-0.5262125	-0.8639125	-0.41367036	0.13981852	0.35949513
207	-2.1005793	0.66735166	1.0468314	0.6852136	-0.60342187	-0.40704018	-0.0209	-0.495825	-0.63305	-0.5878589	0.13542496	0.39980778
208	-2.1062198	0.65264714	1.0390415	0.68638575	-0.5986675	-0.41205442	0.2217875	-0.4466	-0.278575	-0.6461258	0.15115985	0.47332352
209	-2.1111696	0.6445407	1.0308098	0.6831873	-0.60226715	-0.41212505	0.625075	-0.432025	0.1395625	-0.6266124	0.16751176	0.5251679
210	-2.1138592	0.64620197	1.0209934	0.67336243	-0.61624974	-0.40759906	1.1284626	-0.58795	0.64295	-0.5732554	0.18291637	0.47395992
211	-2.1154716	0.68839186	0.98872983	0.6276209	-0.7009259	-0.33780462	2.3128874	0.36245	1.4411374	-0.28419578	0.26636934	0.22262111
212	-2.0651884	0.7773804	0.92353	0.6135503	-0.7259867	-0.30954292	0.4835875	-0.6780125	0.241725	0.870043	-0.53497654	-1.0995244
213	-2.0596287	0.8056049	0.8959215	0.63876075	-0.69763666	-0.32342696	-0.3656125	2.1220374	-1.147025	0.2384105	-0.32285267	-0.20042627
214	-2.0515893	0.7802384	0.90055114	0.6636016	-0.6866086	-0.2958354	0.0089375	1.6071	-0.5935875	-0.33087984	0.25725076	0.036921024
215	-1.9864919	0.75361013	0.8886155	0.6581172	-0.6855003	-0.31030288	-0.2198625	-0.6246625	0.4098875	-0.17718442	-0.33498898	-0.0829693
216	-2.0122797	0.76593053	0.9011951	0.65344757	-0.70073485	-0.28512108	-0.0325875	0.6304375	0.1364	0.2984332	-0.55584013	0.36565623
217	-1.9854046	0.7780273	0.8952809	0.6565215	-0.6959284	-0.2897939	-0.7073	0.3876125	-0.0935	0.063661985	-0.45586058	-0.11907459
218	-1.9859114	0.7737191	0.9075804	0.6484266	-0.70706016	-0.28093833	0.1802625	0.854425	0.42267498	-0.70958865	-0.22821513	0.27615237
219	-1.9843658	0.78514916	0.91896087	0.6419232	-0.7225095	-0.25540566	0.48565	1.55375	1.225125	-0.71929324	0.05145447	0.44948822
220	-1.8815047	0.8431014	0.8814358	0.6096545	-0.7695528	-0.1882207	0.9145125	-0.3639625	1.043075	0.3832048	-0.1742851	0.8354226
221	-1.8720613	0.87397504	0.87828815	0.60301864	-0.7808809	-0.16096935	1.951125	1.0418375	0.2332	0.63745534	-0.20444016	0.42018953
222	-1.7694869	0.9059914	0.7841881	0.60599905	-0.78932875	-0.095092885	0.7272375	0.1364	0.0257125	0.00481134	0.0090993745	-0.41969305
223	-1.731663	0.9112062	0.7544887	0.60273516	-0.7946105	-0.06798209	0.952875	0.42955	-0.0264	-0.102322295	-0.07277483	0.22252339
224	-1.6912802	0.9200681	0.7160007	0.60055393	-0.7982795	-0.03744676	1.26995	0.3971	0.1098625	-0.18852025	0.018050157	0.36486265
225	-1.6430666	0.9255553	0.6711374	0.59692657	-0.801835	-0.0075207287	1.542475	0.55715	0.293975	-0.25197244	0.13169736	0.24554826
226	-1.5960226	0.93082726	0.6238146	0.5902433	-0.80634266	0.027232584	1.5934875	0.78429997	0.44935	-0.21206287	0.13773414	-0.02886867
227	-1.5389714	0.9380737	0.570091	0.58191854	-0.8108708	0.05635512	1.394525	0.3614875	0.473825	-0.09762188	0.08365371	-0.18520834
228	-1.4852238	0.9459533	0.5189941	0.57559663	-0.8140856	0.07259398	1.1391875	0.23265	0.3982	0.0073850458	0.02601222	-0.15872547
229	-1.4539621	0.9518337	0.4813854	0.5693649	-0.81625956	0.094134174	1.0604	0.60005	0.3674	-0.0017808239	0.031657077	-0.060907874
230	-1.369504	0.96024936	0.40205753	0.5496894	-0.82162994	0.14860286	1.3967249	0.6336	0.5982625	-0.05438359	0.040697247	-0.120269515
231	-1.3197167	0.9649864	0.3543258	0.5420924	-0.8235575	0.16494253	1.07525	0.7717875	0.62273747	0.120491736	0.074322045	-0.39725143
232	-1.2870013	0.9679914	0.32224408	0.53495187	-0.82588106	0.1762502	0.3856875	0.5080625	0.5185125	0.23721938	0.10763945	-0.365134
233	-1.239049	0.9766997	0.28662896	0.52238786	-0.8297461	0.19480678	0.1387375	0.9079125	0.194975	0.32745928	-0.12060557	-0.089608006
234	-1.2187375	0.9797269	0.27921474	0.5180251	-0.8311907	0.20022346	-0.1188	0.3991625	0.177925	0.4145896	-0.06789189	-0.31020817
235	-1.2024759	0.98194724	0.27734944	0.5162908	-0.8332094	0.19627243	-0.26345	-0.047849998	0.18535	0.43488666	-0.008992439	-0.22573727
236	-1.204781	0.9852999	0.28327784	0.51561534	-0.83534145	0.18884525	-0.3922875	-0.1148125	0.062975	0.4460513	-0.07230377	-0.23369233
237	-1.234007	0.9911421	0.3099082	0.5280464	-0.8349709	0.15267009	-0.9307375	-1.3919125	-0.314875	0.48337558	-0.16400465	-0.40404624
238	-1.2738839	0.9900421	0.33683532	0.5428902	-0.83164763	0.113798894	-1.3149124	-1.9383374	-0.69685	0.48565727	-0.08965209	-0.08913528
239	-1.3427477	0.9858513	0.37957978	0.56177425	-0.82466346	0.060476087	-2.086425	-2.2198	-0.94269997	0.26758355	-0.08929677	-0.16517027
240	-1.4356376	0.9748342	0.44153494	0.58066857	-0.81369394	-0.0066145714	-2.711225	-2.0702	-1.2034	-6.5323286E-4	-0.16184124	-0.032116316
241	-1.662488	0.932103	0.6239664	0.62067306	-0.7737574	-0.12402279	-3.624225	0.5990875	-1.35135	-0.3360706	-0.5921906	0.13890046
242	-1.7504828	0.89655983	0.7292317	0.6435748	-0.7461141	-0.16864958	-3.4326875	0.595925	-1.4227124	-0.2774127	-0.77162296	-0.12329233
243	-1.8132935	0.8550732	0.8295616	0.6606585	-0.7186553	-0.21536551	-3.067625	-0.3053875	-0.9373375	-0.12773801	-0.67145175	-0.004817975
244	-1.9362333	0.78310984	0.9749865	0.65981936	-0.6836379	-0.31079724	-1.3831125	-1.7268625	-0.71389997	0.26005828	-0.31677496	0.30671468
245	-2.0344698	0.73314786	1.0212641	0.6843839	-0.63898563	-0.35018992	-0.65835	-0.2770625	-1.35025	0.08339896	0.18780826	0.39341623
246	-2.0429044	0.70223504	1.027605	0.6968983	-0.61768866	-0.36347017	-0.271975	-0.83916247	-1.2682999	-0.20128666	0.16895778	0.34695643
247	-2.0490975	0.6735811	1.0223726	0.70317453	-0.6017935	-0.37776566	-0.013475	-0.924	-0.95865	-0.48685956	0.15531038	0.34412652
248	-2.0612018	0.6515126	1.0125725	0.7054363	-0.59265333	-0.3878652	0.2952125	-0.8548375	-0.62975	-0.6310173	0.16523744	0.4200823
249	-2.0716507	0.6378985	0.9999808	0.70479053	-0.5905921	-0.3921583	0.5889125	-0.605825	-0.2679875	-0.6745153	0.1628704	0.46932957
250	-2.0789049	0.6384917	0.9677231	0.6915848	-0.61445206	-0.37878257	1.362625	-0.225775	0.7217375	-0.6019824	0.19844289	0.3666572
251	-2.0743139	0.6567419	0.947698	0.6790983	-0.64081377	-0.35707197	1.884025	0.271425	1.2049125	-0.5311931	0.28515625	0.22821875
252	-2.0610588	0.6873297	0.9239444	0.6632047	-0.6760017	-0.32015413	2.3491874	0.6158625	1.65935	-0.2664616	0.24950325	0.13105628
253	-1.9929652	0.7816967	0.8522893	0.63116986	-0.725087	-0.2742094	0.2058375	-1.327975	-0.07425	1.0311085	-0.88786405	-1.2794144
254	-1.9752364	0.8127181	0.8202214	0.63428617	-0.71354187	-0.2964062	-0.79983747	-0.259325	-0.8479625	0.82270163	-1.1137823	-1.3333644
255	-2.0048711	0.8017028	0.8250664	0.6564022	-0.698204	-0.28454286	-0.3092375	2.3879626	-0.966075	-0.05507187	-0.23726998	-0.13064064
256	-1.9924651	0.7795311	0.83154917	0.6760091	-0.68996966	-0.25743082	-0.1549625	1.4920125	-0.3084125	-0.50709474	0.48905218	-0.06305846
257	-1.9420877	0.7647499	0.8281661	0.676006	-0.6882064	-0.26211607	-0.2932875	-0.71775	0.1725625	-0.3950733	0.272503	-0.17335796
258	-1.9356102	0.76030976	0.8327919	0.66429585	-0.6942734	-0.27570397	-0.1953875	-0.473825	0.6408875	-0.010060389	-0.42724034	-0.036421437
259	-1.9599017	0.7663829	0.8441591	0.6588134	-0.7040853	-0.26371673	0.6006	1.0209374	0.48125	0.26422945	-0.4721685	0.68390024
260	-1.9586883	0.7793449	0.84690547	0.66191804	-0.7082599	-0.2440281	0.020624999	0.6912125	-0.098725	0.3914917	-0.4371989	0.2606489
261	-1.9278637	0.7890434	0.8334422	0.6666485	-0.7028079	-0.24689686	-0.52745	0.32793748	-0.2275625	0.01572153	-0.36497504	-0.1526903
262	-1.9252003	0.7828992	0.8412568	0.64997995	-0.72581893	-0.22367428	0.5388625	1.450075	0.2385625	-0.6675182	-0.29171935	0.28105962
263	-1.8640162	0.8306935	0.82610255	0.6236756	-0.76762503	-0.14525017	0.68901247	0.466125	1.550725	-0.20644316	0.017670875	0.7511676
264	-1.8038	0.86835146	0.79601234	0.60422295	-0.78578067	-0.12953947	1.2551	-0.2781625	0.9813375	0.30933976	-0.17313364	0.6927352
265	-1.7869782	0.89942163	0.776708	0.5981857	-0.7950745	-0.0966826	1.617	1.310925	0.28861248	0.59712005	-0.16536891	-0.056329638
266	-1.7476083	0.9179639	0.73333925	0.5972165	-0.798973	-0.06551096	1.0049875	0.6776	0.1651375	0.33703423	-0.022234902	-0.56181324
267	-1.6589034	0.9295992	0.6639035	0.5950846	-0.8030156	-0.018896502	1.1369874	0.704825	0.0757625	-0.18499288	-0.007993559	0.23031853
268	-1.6134027	0.93328595	0.62569255	0.5909073	-0.80625725	0.009734106	1.2029876	0.62425	0.28435	-0.25064734	0.083428465	0.22318637
269	-1.5652816	0.9379685	0.58398527	0.58514875	-0.80963	0.037652563	1.263625	0.6545	0.3674	-0.17597438	0.1760979	0.07753092
270	-1.5181981	0.9435743	0.54114455	0.57806706	-0.8128908	0.06606307	1.1891	0.7874625	0.41525	-0.087348446	0.1938235	-0.17167468
271	-1.4689708	0.94918114	0.4977587	0.5711092	-0.8156589	0.08861268	1.035925	0.4965125	0.4301	0.004013112	0.113824084	-0.19789404
272	-1.3943546	0.9563758	0.42931893	0.56119436	-0.81778026	0.12495392	0.8581375	0.8063	0.373725	0.09090047	0.012168631	-0.13565728
273	-1.3616382	0.9580491	0.40238568	0.55224496	-0.8202931	0.1464984	1.00925	0.5729625	0.5418875	-0.011465138	0.06474267	-0.120397486
274	-1.2803293	0.9669748	0.3309594	0.53626406	-0.8228834	0.18601339	1.07635	0.58025	0.6557375	0.23713043	0.14398435	-0.23524886
275	-1.2188923	0.96553904	0.27021497	0.53238314	-0.82216144	0.1998394	0.6804875	0.432575	0.4610375	0.2776016	0.15916449	-0.24979351
276	-1.2188923	0.96553904	0.27021497	0.5283668	-0.82232416	0.20959263	0.429275	0.4378	0.23539999	0.19935492	0.023348639	-0.15566295
277	-1.1768665	0.9668543	0.2388369	0.51964235	-0.8239611	0.22444853	-0.1698125	0.401225	0.15345	0.30696315	-0.14373009	-0.30100816
278	-1.1636072	0.96861744	0.23691136	0.5173557	-0.82624805	0.2213023	-0.320925	0.1824625	0.1225125	0.34391338	-0.095357515	-0.23608825
279	-1.1649234	0.9725144	0.24477918	0.5170124	-0.82839465	0.213957	-0.4444	-0.0792	0.012925	0.37014353	-0.1352139	-0.2666634
280	-1.1945416	0.97804403	0.27569604	0.5317821	-0.82843953	0.17381804	-1.1521125	-1.32385	-0.40205	0.47749928	-0.17003137	-0.42499542
281	-1.2385036	0.9777124	0.30790147	0.5480507	-0.82562876	0.13151027	-1.567225	-1.935175	-0.7011125	0.47560373	-0.08496752	-0.12956838
282	-1.3125395	0.9741391	0.35862592	0.56743914	-0.8197056	0.07357248	-2.2781	-2.2093499	-0.934175	0.25233153	-0.05501923	-0.18285382
283	-1.5306557	0.95042646	0.518198	0.5862212	-0.80970573	0.006197958	-2.693075	-2.0471	-1.1544499	-0.021282345	-0.19905573	0.0062332354
284	-1.5306557	0.95042646	0.518198	0.6042046	-0.79445887	-0.055579986	-3.1975625	-0.65174997	-1.227875	-0.18290491	-0.40350747	0.29380628
285	-1.6386151	0.92684644	0.61304826	0.6220219	-0.7754138	-0.105541885	-3.5976875	0.747725	-1.1268125	-0.31662437	-0.58808774	0.13387522
286	-1.7901262	0.8607635	0.82525307	0.65598464	-0.7261185	-0.20433633	-2.8452876	-0.55233747	-0.8118	-0.04976143	-0.5938662	0.07600299
287	-1.8569031	0.8219027	0.9204144	0.656602	-0.7104848	-0.25179845	-1.3479125	-2.0879376	-0.575575	0.11189953	-0.4757537	0.63823575
288	-1.9213681	0.79644215	0.97217274	0.65637755	-0.69488317	-0.292615	-1.5032874	-1.3437876	-0.66495	0.2783778	-0.26455104	0.22483212
289	-1.9782795	0.77549654	1.0000758	0.6670566	-0.67304933	-0.31836677	-1.1829125	-0.5105375	-1.0352376	0.26749995	0.088645674	0.2115319
290	-2.022466	0.7157767	1.0318981	0.694518	-0.62945855	-0.34748247	-0.372075	-0.7429125	-1.1512874	-0.27321833	0.14444326	0.29702374
291	-2.0432558	0.6667899	1.0256165	0.7015408	-0.6142458	-0.36036053	-0.0985875	-0.7209125	-0.9108	-0.5372136	0.091615774	0.34262353
292	-2.050779	0.65233713	1.0160989	0.70760447	-0.60040724	-0.37165043	0.464475	-0.4926625	-0.319	-0.6178032	0.20101888	0.4817422
293	-2.0542948	0.6454047	1.0037549	0.7048674	-0.60516256	-0.36913064	0.905025	-0.454025	0.130075	-0.6211824	0.20679866	0.46679118
294	-2.053981	0.6483499	0.9876762	0.69619846	-0.6204326	-0.36012304	1.386	-0.37125	0.6334625	-0.5812137	0.20544793	0.3708264
295	-2.0383804	0.69289666	0.9401538	0.683838	-0.6447734	-0.34051475	1.8712375	0.0704	1.0527	-0.5240062	0.2654615	0.21921507
296	-2.0087478	0.7326863	0.90312976	0.6531256	-0.70795125	-0.26748663	2.2097626	0.3980625	1.437975	0.15441264	0.07879221	-0.24077024
297	-1.9690411	0.776833	0.8593258	0.63981384	-0.7252967	-0.25278538	0.5379	-0.9574125	0.2737625	0.8020822	-0.5410642	-1.1524134
298	-1.9444574	0.8103745	0.8249194	0.6417589	-0.7181372	-0.26784688	-0.4901875	-0.14093749	-0.7181625	0.95834816	-1.0291564	-1.3314345
299	-1.9504946	0.7870519	0.82536864	0.6618305	-0.7041586	-0.25584862	-0.1794375	1.9672124	-0.92785	0.22482088	-0.29584137	-0.29441133
300	-1.8950102	0.76692325	0.8210561	0.68257207	-0.69276714	-0.23127021	-0.108075	-0.4277625	-0.0614625	-0.26564547	0.11203315	-0.21418852
301	-1.9088069	0.76817477	0.8259377	0.67749685	-0.6946782	-0.240286	-0.2135375	-0.2959	0.2726625	0.043711092	-0.5167438	-0.08040208
302	-1.9066875	0.7735737	0.8294458	0.67606825	-0.6988106	-0.23219222	0.086625	0.99055	0.243925	0.19916111	-0.67886525	0.68284976
303	-1.897096	0.7732225	0.84018636	0.67958677	-0.6957437	-0.23112799	-1.11595	0.6483125	-0.17545	0.20053558	-0.8007854	-0.0956763
304	-1.8792641	0.7935917	0.85670924	0.66667503	-0.71615946	-0.20488404	0.7634	1.5871625	0.978175	-0.9371185	0.020440808	0.4717495
305	-1.8217148	0.83052635	0.83350486	0.64856774	-0.7435118	-0.16083504	0.576125	1.3915	1.6933125	-0.40595305	0.051661633	0.74237937
306	-1.7952311	0.8668041	0.8246807	0.62592566	-0.76672304	-0.14024945	0.88054997	0.153175	1.4581875	0.15236177	-0.20341459	0.87460726
307	-1.7952311	0.8668041	0.8246807	0.6120868	-0.7819074	-0.1152726	1.8467625	0.462	0.62273747	0.53704166	-0.23196115	0.5955019
308	-1.7698841	0.8940943	0.79316527	0.6105684	-0.7887291	-0.0665538	1.7733375	1.643675	0.208725	0.58178633	-0.026668515	-0.41387433
309	-1.6480479	0.91304094	0.6937968	0.6071465	-0.79391104	-0.019888284	0.9081875	0.8952625	0.0512875	-0.18462357	-0.03830606	0.03008706
310	-1.6138295	0.91799533	0.6660693	0.60121036	-0.79855627	0.01309341	1.083775	0.87229997	0.2662	-0.27796876	-0.025908541	0.25326747
311	-1.5604384	0.9248484	0.6269519	0.5942549	-0.8028423	0.040275466	1.1391875	0.563475	0.423775	-0.23809282	0.10417258	0.22750741
312	-1.5135535	0.93148553	0.5869324	0.5867756	-0.80657876	0.066652	1.0624624	0.8199125	0.4332625	-0.09166856	0.2199274	-0.04544405
313	-1.4690485	0.93795276	0.54787695	0.57920414	-0.80969805	0.090712555	0.971025	0.714175	0.4503125	0.016713263	0.1913494	-0.18776147
314	-1.4257944	0.9433282	0.5135867	0.58070046	-0.80624324	0.10989226	1.0220375	0.639925	0.2684	0.15855029	0.11266524	-0.095717944
315	-1.3938498	0.93853277	0.48523602	0.5820834	-0.80199844	0.13150729	1.0157125	0.83985	0.1651375	0.14074536	0.08620336	-0.09470302
316	-1.3594083	0.93203866	0.45710096	0.57589275	-0.8019594	0.15660669	1.1358875	0.66605	0.342925	-0.06641262	0.09033857	-0.17659141
317	-1.3162463	0.93147737	0.42197704	0.56633735	-0.80392605	0.1796723	1.1028875	0.5550875	0.54505	-0.10589391	0.08618902	-0.26458058
318	-1.2742082	0.9339996	0.38332245	0.55996644	-0.80522686	0.19329864	1.0593	0.563475	0.6397875	0.088657394	0.05701582	-0.20787051
319	-1.2490802	0.9357941	0.35725176	0.5509962	-0.8069187	0.2111945	0.8177125	0.6147625	0.61105	0.20852977	0.05136819	-0.22628625
320	-1.2141755	0.93855464	0.32492194	0.54567385	-0.8090177	0.21690427	0.3441625	0.4912875	0.51425	0.14770533	0.05886484	-0.23413669
321	-1.1980441	0.9417533	0.31129968	0.5376946	-0.8118823	0.22593975	0.17173749	0.8135875	0.3227125	0.25332987	-0.049386766	-0.1900529
322	-1.178665	0.94724643	0.30009356	0.5318079	-0.81332517	0.23452032	-0.043175	0.6556	0.144925	0.39296275	-0.10757694	-0.28375578
323	-1.1555917	0.95271087	0.30015764	0.5302921	-0.8165981	0.22643955	-0.3273875	-0.1461625	0.0279125	0.45135927	-0.09207156	-0.2415313
324	-1.1640619	0.95576257	0.3094886	0.53437155	-0.8169943	0.21513824	-0.4657125	-0.55439997	-0.214775	0.5120046	-0.25598738	-0.42870095
325	-1.21979	0.95663637	0.3476514	0.5589003	-0.81566614	0.14709389	-1.3745875	-2.226125	-0.5468375	0.44915783	-0.18789658	-0.21876055
326	-1.2915728	0.9557517	0.38977718	0.5764298	-0.8117437	0.090098	-2.137575	-2.4657874	-0.7447	0.34905946	-0.12281288	-0.18184112
327	-1.3875387	0.9500616	0.45004803	0.5937705	-0.8039903	0.018804325	-2.6888125	-2.4909499	-1.0022374	0.0765659	-0.18744706	0.005553474
328	-1.5078607	0.9394009	0.5352157	0.61051196	-0.7901314	-0.04780054	-3.087975	-1.253725	-1.18745	-0.10561899	-0.34850776	0.38491064
329	-1.7129866	0.8893091	0.72837645	0.6518491	-0.7430337	-0.14936827	-3.8478	0.6188875	-1.4471875	-0.23533536	-0.7268898	-0.27070817
330	-1.7798587	0.8497866	0.83505195	0.6676803	-0.71583575	-0.20273012	-2.645225	-1.2045	-1.0714	0.042518463	-0.6820236	0.01699617
331	-1.9341838	0.7685842	0.98434705	0.6741941	-0.6741912	-0.3004091	-1.4788125	-1.58455	-0.92455	0.23345116	-0.2759617	0.28491983
332	-1.9777106	0.7479404	1.0055557	0.69034904	-0.65067905	-0.31520185	-1.11705	-1.0569625	-1.1097625	0.12066011	0.0552662	0.34598166
333	-1.9915581	0.7166653	1.0098033	0.6997892	-0.6284566	-0.33860683	-0.6529875	-1.1176	-1.2002375	0.018452382	0.20368592	0.35960072
334	-2.015744	0.6871989	1.0177011	0.70590115	-0.60932666	-0.36019662	-0.254925	-1.19295	-1.144825	-0.2132406	0.13328692	0.3184994
335	-2.0379326	0.66168195	1.0150005	0.71159244	-0.5933029	-0.37542704	-0.059125	-0.8831625	-1.0107625	-0.534834	0.045489486	0.33842397
336	-2.0535512	0.6405415	1.0058261	0.71478164	-0.58226943	-0.3864799	0.151525	-0.83187497	-0.69575	-0.7281303	0.05769754	0.4455013
337	-2.064115	0.62498116	0.9947826	0.7138548	-0.57855517	-0.39370346	0.4697	-0.7544625	-0.3169375	-0.7581973	0.1354359	0.5528319
338	-2.0731688	0.61796236	0.98213583	0.70930135	-0.58315575	-0.39514333	0.84645	-0.6769125	0.0917125	-0.70593745	0.18693247	0.550388
339	-2.0782976	0.6208935	0.9667861	0.6982994	-0.5981038	-0.39238644	1.36895	-0.8496125	0.587675	-0.63244313	0.16874601	0.46272287
340	-2.0819755	0.63596225	0.94785225	0.68289924	-0.62409323	-0.3787791	2.050125	-0.3179	1.0505	-0.57208884	0.2464174	0.33882496
341	-2.0808105	0.66514194	0.92210454	0.67042154	-0.6587869	-0.3403706	2.7588	0.81675	1.271875	-0.2927457	0.3341233	0.24699141
342	-2.0528939	0.70800126	0.8821127	0.6581838	-0.69197124	-0.29544362	2.4024	0.401225	1.2271875	0.21143392	0.0267266	-0.30038208
343	-2.0027893	0.75446045	0.83158875	0.6468638	-0.70676154	-0.28525847	0.3697375	-1.17205	0.0587125	0.8594512	-0.76193875	-1.367448
344	-1.9818693	0.78475326	0.79573166	0.6484611	-0.69810563	-0.30243048	-0.64762497	-0.0834625	-0.6692125	0.69210464	-1.1755947	-1.2975696
345	-2.0053144	0.7780128	0.79754657	0.6681927	-0.6860767	-0.28659108	-0.1709125	2.6464624	-0.7192625	-0.06126604	-0.22309761	-0.19770557
346	-1.9899229	0.76056707	0.8029038	0.6879284	-0.6794816	-0.25372508	-0.1964875	1.8299875	-0.30415	-0.3993504	0.32677516	-0.17268163
347	-1.9330093	0.74966216	0.8005893	0.68551964	-0.6800775	-0.25860208	-0.336875	-0.604725	0.1725625	-0.29051962	-0.25397456	-0.25087804
348	-1.926794	0.74847436	0.80835176	0.6758384	-0.6832009	-0.275311	-0.5891875	-0.3650625	0.503525	0.13975795	-0.739322	-0.12988779
349	-1.9551244	0.7560217	0.8374514	0.68121034	-0.6823932	-0.26383534	-0.6094	0.8262375	-0.014712499	0.058040414	-0.3211695	0.28921762
350	-1.941894	0.753028	0.851366	0.677039	-0.6871912	-0.26211253	-0.126225	0.282975	0.669625	-0.7948831	-0.01811461	0.36292294
351	-1.9253768	0.77676594	0.8670789	0.6481969	-0.7348286	-0.19795097	0.97625	1.61865	1.8359	-0.16267695	-0.0781225	0.95136076
352	-1.87747	0.81603557	0.8550151	0.63036805	-0.75883734	-0.16161405	1.641475	0.9172625	1.1814	0.524372	-0.27827272	1.0043205
353	-1.7748302	0.87819546	0.7851324	0.6288436	-0.7720203	-0.08864295	0.609125	0.73095	0.029975	0.37921453	0.094038606	-0.74204516
354	-1.7181555	0.88235277	0.7512435	0.62360024	-0.7773911	-0.07812483	0.837925	0.3070375	0.0939125	-0.15979289	-0.050437655	-0.11984153
355	-1.7020487	0.89042026	0.7369263	0.61171466	-0.7895309	-0.04199447	1.232825	0.7456625	0.1172875	-0.2679838	-0.14819087	0.22048073
356	-1.6005244	0.91878134	0.64863724	0.5981598	-0.800843	0.013129458	1.345575	0.3458125	0.5163125	-0.24881727	0.14263201	0.2161213
357	-1.5595282	0.92714536	0.60673004	0.588774	-0.8065111	0.046926025	1.641475	0.9141	0.5951	-0.063697614	0.27164873	0.124740645
358	-1.5071634	0.9367638	0.5554519	0.58160615	-0.8087147	0.083858214	1.5882624	0.995775	0.4450875	0.10636025	0.2108554	-0.14237504
359	-1.4436622	0.9417447	0.500129	0.5788039	-0.80774295	0.108879976	1.281775	0.4241875	0.2630375	0.18235818	0.074103795	-0.27329895
360	-1.395769	0.94107604	0.45603403	0.57764536	-0.8062523	0.12490106	1.1188375	0.2525875	0.2129875	0.0954433	0.029692614	-0.17066559
361	-1.3301492	0.9397581	0.3852514	0.56176627	-0.80923617	0.16991927	1.230625	0.4577375	0.5248375	-0.17899866	-0.012782152	-0.11598959
362	-1.2882996	0.9429509	0.3439522	0.5488994	-0.81356627	0.1900964	1.132725	0.8503	0.669625	-0.05165172	-0.0069230823	-0.27419427
363	-1.213622	0.9549412	0.27844316	0.5286538	-0.82028896	0.21672142	0.1962125	0.5886375	0.5259375	0.25819638	0.05862229	-0.27451956
364	-1.1871678	0.9607078	0.26086164	0.52110535	-0.82303625	0.22445004	0.0132	0.88385	0.2556125	0.3443381	-0.027529495	-0.1614531
365	-1.1690829	0.96645075	0.25389203	0.51609457	-0.82425934	0.23143058	-0.125125	0.746625	0.100237496	0.4030645	-0.06951741	-0.2467211
366	-1.1522025	0.9690477	0.2546689	0.51451474	-0.82541454	0.23083054	-0.23265	0.1395625	0.062975	0.41728956	-0.055625264	-0.25804767
367	-1.1481558	0.97104216	0.26117548	0.5153814	-0.82722545	0.2222547	-0.4838625	-0.22165	0.0416625	0.38961866	-0.114670634	-0.33938006
368	-1.1591398	0.97387046	0.27253652	0.51878566	-0.8291596	0.2065742	-0.7253125	-0.4717625	-0.1764125	0.41229993	-0.2581951	-0.4444947
369	-1.1837579	0.9779463	0.29395428	0.52691805	-0.82995033	0.1812653	-1.108525	-1.21495	-0.2668875	0.44086486	-0.25792426	-0.5136812
370	-1.2246963	0.97932065	0.32594067	0.5413158	-0.82900554	0.13800067	-1.57135	-2.0879376	-0.60005	0.5167881	-0.07302812	-0.25023308
371	-1.2980621	0.97908765	0.37563947	0.56078935	-0.82394475	0.07712042	-2.3111	-2.606175	-0.8405375	0.36103025	0.002950849	-0.15173815
372	-1.4032792	0.97162867	0.44660774	0.5803264	-0.81395584	0.0037912293	-2.610025	-2.8406124	-1.1598125	0.11569814	-0.11693097	0.12995495
373	-1.5312939	0.9573047	0.5352522	0.60085416	-0.7963799	-0.06380184	-2.8304374	-1.469325	-1.441825	-0.03327006	-0.38913992	0.4304685
374	-1.7369322	0.8954423	0.71548754	0.6471221	-0.7448397	-0.16051096	-3.9796624	1.0973876	-1.4918749	-0.1471221	-0.84639883	-0.23999362
375	-1.7995604	0.8529886	0.8222138	0.66704947	-0.7147616	-0.20851456	-2.71755	-0.9700625	-1.2332375	0.09247651	-0.7415075	0.11677144
376	-1.8574172	0.80687255	0.9162509	0.6722658	-0.6930568	-0.25893706	-1.3308625	-2.14445	-1.016125	0.27961496	-0.49023062	0.49207163
377	-1.9235318	0.7735231	0.9616424	0.677213	-0.6722346	-0.29799318	-1.18085	-1.5635124	-1.1012375	0.21219063	-0.23418741	0.27291673
378	-1.9746729	0.7453035	0.98192704	0.6884444	-0.65026087	-0.3201905	-0.9222125	-1.1323125	-1.2747625	0.037855327	0.014588057	0.3319183
379	-1.9992656	0.71630216	0.9880778	0.69760746	-0.62756306	-0.34471154	-0.56993747	-1.2244375	-1.2640375	-0.088739	0.15641628	0.3320663
380	-2.0239072	0.6859822	0.9911875	0.7035848	-0.60924506	-0.36483634	-0.2613875	-1.026575	-1.05875	-0.30664292	0.1221961	0.3231391
381	-2.0451179	0.6610248	0.98743105	0.7088668	-0.59480613	-0.378194	0.0067375	-0.810975	-0.92455	-0.53313285	0.0865493	0.38502887
382	-2.058587	0.6416883	0.97878665	0.711887	-0.5856366	-0.38673446	0.2228875	-0.6989125	-0.5935875	-0.7060766	0.14354183	0.47072527
383	-2.066787	0.62832916	0.9669499	0.71091884	-0.58347124	-0.3917561	0.4186875	-0.5995	-0.183975	-0.75526136	0.21385351	0.5270313
384	-2.0731874	0.6233689	0.95508975	0.70503676	-0.5902145	-0.39228508	0.8316	-0.63827497	0.2811875	-0.7023915	0.1969423	0.54977745
385	-2.0775983	0.62864554	0.94256824	0.6921205	-0.60708374	-0.3895336	1.2881	-0.8067125	0.7536375	-0.6069065	0.15131919	0.43540514
386	-2.0823407	0.6465146	0.925815	0.6746524	-0.6349788	-0.3754508	2.063875	-0.3179	1.2112375	-0.5365332	0.20562097	0.33864653
387	-2.0820646	0.6782362	0.90300965	0.6585585	-0.67107004	-0.3395338	2.6395874	0.562375	1.4166625	-0.18741168	0.20134528	0.19071117
388	-2.0572855	0.7238623	0.86496365	0.6439621	-0.7033039	-0.29998925	2.15435	0.16885	1.0984875	0.34033456	-0.12992242	-0.40449086
389	-2.014955	0.7711177	0.8192091	0.63476074	-0.7125967	-0.29766095	-0.059125	-1.4766124	-0.1456125	0.93262464	-0.9081984	-1.4629966
390	-2.001967	0.7946665	0.7895709	0.6369772	-0.7020145	-0.31741667	-0.7264125	0.1291125	-0.7341125	0.59196776	-0.9681231	-1.1622012
391	-2.0153863	0.76756805	0.8038347	0.6754517	-0.6841778	-0.2738305	-0.2209625	1.55265	-0.3328875	-0.35832635	0.38856623	-0.1445181
392	-1.9634372	0.7560903	0.80223596	0.6744672	-0.68378127	-0.27722615	-0.1783375	-0.4057625	0.1588125	-0.18527763	-0.19144812	-0.26639768
393	-1.9577485	0.75317687	0.80813694	0.6653931	-0.68715686	-0.29048955	-0.4742375	-0.3911875	0.4684625	0.23032556	-0.6897086	-0.28555024
394	-1.9775896	0.75700295	0.81982505	0.66669077	-0.6897391	-0.28124893	0.0408375	1.22815	0.0416625	0.46408907	-0.47529143	0.55464345
395	-1.9433423	0.7609495	0.8219873	0.6730661	-0.69188607	-0.25998703	-0.1794375	0.2641375	0.4972	-0.66603243	-0.11372556	0.21544576
396	-1.9290279	0.79094183	0.8342285	0.6412934	-0.74200207	-0.19363101	0.68255	1.2753125	1.601875	-0.23650748	-0.043319073	0.8030041
397	-1.8714732	0.8280585	0.81101716	0.622665	-0.7628003	-0.17245719	1.1583	0.0213125	1.1281875	0.3906836	-0.17562485	1.0193532
398	-1.8458941	0.86133647	0.7985981	0.61319673	-0.7762562	-0.14399146	2.0299125	0.5383125	0.4098875	0.5781336	-0.16360623	0.65152967
399	-1.8156971	0.88504726	0.7586443	0.6156056	-0.78229713	-0.091423094	1.5807	2.100175	0.104499996	0.4715504	0.031333838	-0.51591635
400	-1.7384722	0.8973328	0.6975498	0.61540973	-0.78471625	-0.06934431	0.78155	0.27775	0.0683375	-0.044874556	0.002254453	-0.62862206
401	-1.6892513	0.90219796	0.6663242	0.6112017	-0.78951687	-0.049124505	0.969925	0.444125	-0.014712499	-0.18011607	-0.07297543	0.11548536
402	-1.6112757	0.9152004	0.59338206	0.60340714	-0.79694605	0.009703063	1.409375	0.2160125	0.34925	-0.24846826	0.13191551	0.19783518
403	-1.5650492	0.9213024	0.5469892	0.5973534	-0.8007156	0.036617585	1.386	0.5383125	0.4087875	-0.07074785	0.19062388	-0.07342186
404	-1.521578	0.9275812	0.49946317	0.59257257	-0.8029729	0.05838778	1.1561	0.6419875	0.36519998	0.0375039	0.1088903	-0.24503915
405	-1.4836873	0.9317327	0.4631698	0.58865166	-0.8040513	0.0794227	1.0720875	0.4431625	0.2662	0.08096607	0.0014060134	-0.10541659
406	-1.407424	0.93414164	0.39189285	0.57796866	-0.8054463	0.12855273	1.1316249	0.661925	0.3993	-0.088779055	0.06619554	-0.10908791
407	-1.3632282	0.93640375	0.35284168	0.5676887	-0.80858135	0.15245695	1.1221375	0.5864375	0.5567375	-0.115593925	0.029070636	-0.14664654
408	-1.3196648	0.94119745	0.31373534	0.5559185	-0.8120855	0.17546774	1.229525	0.573925	0.70785	0.0036074843	0.027177287	-0.10685918
409	-1.2774235	0.94687355	0.2735996	0.5462599	-0.81356084	0.19757542	1.0954624	0.769725	0.67485	0.17617135	0.059233624	-0.20257543
410	-1.2362676	0.9496207	0.23460875	0.53782016	-0.8152252	0.21324757	0.462275	0.886875	0.48014998	0.22436635	0.06579094	-0.29520476
411	-1.2018638	0.95244575	0.20827104	0.5305326	-0.81689453	0.22480123	0.218625	0.8806875	0.2726625	0.29220444	0.018836427	-0.2435627
412	-1.1570265	0.9570242	0.19155233	0.5258222	-0.8175932	0.23317234	-0.10065	0.061049998	0.0683375	0.49027875	0.060605466	-0.20075643
413	-1.1530912	0.9574287	0.1944692	0.52710176	-0.817559	0.23038724	-0.10285	-0.0928125	0.016224999	0.42936617	-0.004153587	-0.22232912
414	-1.1574849	0.9576058	0.19844975	0.53022295	-0.81803	0.22137631	-0.4731375	-0.3053875	-0.1764125	0.36132142	-0.16973759	-0.44686562
415	-1.169993	0.95860314	0.2087081	0.5388124	-0.8168781	0.20422645	-0.7371375	-0.8382	-0.385	0.44019374	-0.3205378	-0.5095323
416	-1.1982692	0.9571816	0.23150958	0.55098534	-0.81656563	0.17015629	-1.3660625	-1.719575	-0.4393125	0.46266913	-0.18679824	-0.39981988
417	-1.3655112	0.9512835	0.3457467	0.5880517	-0.8067705	0.051319767	-2.594075	-2.4124374	-1.0778625	0.16577095	-0.14235796	-0.07394974
418	-1.4530479	0.9434291	0.40973803	0.61105835	-0.7909664	-0.0172372	-2.8441875	-1.783375	-1.5747875	0.081801	-0.33644953	0.251595
419	-1.5715529	0.92118204	0.5007779	0.6362047	-0.7674525	-0.0746836	-3.282675	-0.0028875	-1.671725	-0.05791724	-0.5815843	0.29099858
420	-1.6689095	0.8856169	0.5943502	0.66252834	-0.73954445	-0.11596193	-3.755125	1.2617	-1.619475	-0.1726201	-0.8831926	-0.0741451
421	-1.7312813	0.8441529	0.6932387	0.6854019	-0.7092997	-0.16258991	-3.69765	0.119625	-1.3140875	-0.057267364	-0.8582844	-0.25453547
422	-1.7874655	0.79964787	0.7960714	0.69160277	-0.68864113	-0.21627857	-1.5181375	-2.3716	-0.75322497	0.0070669595	-0.62359124	0.59731835
423	-1.8561428	0.7659929	0.8687725	0.69140583	-0.6717976	-0.2645058	-1.189375	-2.238775	-0.8883875	0.23948097	-0.33176515	0.38702872
424	-1.9213539	0.7434324	0.8926411	0.69778025	-0.6494767	-0.30099934	-1.236125	-1.21605	-1.1396	0.16226569	-0.0194377	0.14339995
425	-1.9930633	0.6830929	0.92240614	0.72210467	-0.6017225	-0.34031197	-0.3900875	-1.025475	-1.32055	-0.17765513	0.15473472	0.3664129
426	-2.0069199	0.6529579	0.922118	0.72884923	-0.5828405	-0.3583194	-0.1486375	-0.9868375	-1.115125	-0.4327177	0.10780991	0.35179037
427	-2.0241287	0.62803185	0.91471547	0.7335318	-0.56867	-0.3712988	0.1249875	-0.8674875	-0.8809625	-0.6556572	0.11362412	0.42553428
428	-2.036857	0.60900104	0.90413684	0.7347544	-0.5612824	-0.38002035	0.3697375	-0.787875	-0.50215	-0.76911217	0.15119062	0.47492862
429	-2.0461252	0.5977664	0.89065164	0.7315127	-0.5624256	-0.38455662	0.7112875	-0.765875	-0.0573375	-0.76342404	0.18699747	0.5065749
430	-2.0532427	0.5963565	0.8763026	0.7217967	-0.57410806	-0.385651	1.1668249	-0.91135	0.472725	-0.68540525	0.18623346	0.48279166
431	-2.0598054	0.6071173	0.85855025	0.7053023	-0.597508	-0.3805916	1.7106375	-0.7544625	1.0632875	-0.62813103	0.2484713	0.34308395
432	-2.065604	0.63208276	0.8370864	0.68649846	-0.6326495	-0.35747957	2.4661999	0.04015	1.4784	-0.4577523	0.36119688	0.24035421
433	-2.0298293	0.7171945	0.76849854	0.6567715	-0.6912427	-0.30025333	1.2104125	-0.4466	0.6216375	0.7599411	-0.37684596	-1.0092268
434	-2.0014138	0.758379	0.7303459	0.6505005	-0.6884249	-0.31974643	-0.6147625	-1.4933875	-0.5159	1.084056	-1.2790521	-1.5497797
435	-2.0186322	0.7635269	0.7226242	0.66364574	-0.67480224	-0.3217666	-0.16885	1.472075	-0.95755	0.2506203	-0.8082712	-0.40687254
436	-2.0309215	0.74590665	0.72684723	0.6880296	-0.6626901	-0.294575	-0.29865	1.958825	-0.7022125	-0.35358003	0.12640573	-0.066388294
437	-1.9704683	0.71638477	0.7261844	0.6825417	-0.65868825	-0.3155695	-0.75734997	-0.99935	0.715275	-0.3307527	-0.45037904	-0.33427763
438	-1.9945769	0.71789485	0.7411806	0.67282224	-0.6648696	-0.32338187	-0.3422375	0.87642497	0.6153125	0.22584751	-0.66857076	0.16038494
439	-2.0207226	0.725794	0.76689726	0.6775692	-0.66939753	-0.3035203	-0.24653749	1.5442625	0.2162875	0.32487732	-0.40869117	0.57374966
440	-1.9983386	0.73343337	0.7758046	0.68272847	-0.6778404	-0.27153492	-0.2699125	0.996875	0.2035	-0.12982327	-0.08871922	0.5258621
441	-1.9528495	0.7448919	0.7666061	0.66869146	-0.69968075	-0.250231	0.25795	1.375825	0.825	-0.48173428	-0.2548606	0.22373255
442	-1.9355527	0.7711487	0.773345	0.65319484	-0.7330431	-0.1878863	0.807125	1.7598625	1.3272874	-0.2782713	-0.094785646	0.5867701
443	-1.8618255	0.81580293	0.7391129	0.63861835	-0.7547475	-0.14778553	1.214675	1.191575	1.3464	0.08859877	0.024579277	0.7820363
444	-1.8091309	0.847863	0.7158825	0.6252534	-0.7716632	-0.11362813	1.76385	0.4797375	0.80795	0.37668845	-0.05474348	0.6229095
445	-1.7625091	0.87642914	0.67830473	0.62127906	-0.77946997	-0.075869635	1.6275874	1.060675	0.1918125	0.48901147	-0.021952055	-0.109864324
446	-1.7074705	0.89241874	0.6235313	0.6225244	-0.7806122	-0.049249515	0.872025	0.7404375	-0.0540375	0.1470016	-0.032124873	-0.61110216
447	-1.658855	0.8961561	0.58525074	0.6155342	-0.78699946	-0.032654453	0.8762875	0.8283	-0.0594	-0.20513664	-0.12848982	-0.121581025
448	-1.6335121	0.90658444	0.56782204	0.6096394	-0.7922462	0.0017144188	1.10935	1.2104125	0.21945	-0.30841616	-0.088594735	0.17576265
449	-1.581195	0.91397524	0.53139675	0.6009431	-0.79819316	0.032746393	1.254	0.5215375	0.5908375	-0.29676875	0.065578476	0.25185606
450	-1.5273819	0.92225975	0.48969293	0.59074867	-0.8042744	0.058958117	1.4169375	0.2567125	0.6259	-0.123271585	0.22670558	0.23451284
451	-1.4824607	0.93262255	0.44305342	0.58187467	-0.80768967	0.09152349	1.5637875	0.886875	0.4929375	0.052574866	0.2774144	0.02540311
452	-1.4302336	0.9395676	0.38936466	0.5794872	-0.80561554	0.12039744	1.2912625	1.0795125	0.1725625	0.14753118	0.078597195	-0.22304268
453	-1.3801258	0.9377617	0.34761372	0.57589597	-0.8040807	0.14531083	1.0454125	0.8262375	0.144925	0.06905812	-0.047188357	-0.203109
454	-1.3347971	0.9352953	0.31298032	0.5688306	-0.80397403	0.17139147	1.0305625	0.9937125	0.28435	-0.080558404	0.024264546	-0.09107036
455	-1.2902642	0.93465716	0.27884963	0.55844057	-0.8048329	0.1992619	1.034825	0.952875	0.4577375	-0.13366994	0.05386957	-0.08692245
456	-1.2403889	0.9355548	0.24192594	0.54625785	-0.8070464	0.22270022	1.0252	0.8262375	0.6056875	-0.037695166	0.04660298	-0.22178279
457	-1.1629485	0.9416884	0.18151231	0.5263371	-0.8115245	0.25241718	0.2132625	0.92675	0.4684625	0.28589532	0.05403216	-0.4139921
458	-1.1308993	0.9457153	0.16184655	0.5178939	-0.81444937	0.26033714	-0.1230625	1.05655	0.22055	0.34652504	-0.035091955	-0.27145338
459	-1.1101104	0.95114285	0.15808517	0.51115847	-0.81654906	0.2669864	-0.2827	0.96648747	0.110825	0.41289347	-0.11575982	-0.31969282
460	-1.0927786	0.9548931	0.16271675	0.50821906	-0.81924987	0.26431084	-0.4635125	0.347875	0.0842875	0.4191968	-0.026621705	-0.2995861
461	-1.0901924	0.9592924	0.17575058	0.50835437	-0.82119006	0.2579532	-0.419925	0.0787875	0.0119624995	0.4440462	-0.029069858	-0.21575135
462	-1.1210103	0.96808326	0.21432537	0.5165114	-0.82557446	0.22574282	-1.0286375	-0.6821375	-0.27225	0.48665372	-0.31988433	-0.5879294
463	-1.1475388	0.9710292	0.23768719	0.527661	-0.82799196	0.18793754	-1.77045	-1.5467374	-0.40425	0.45766008	-0.24061659	-0.60016996
464	-1.2074575	0.9750108	0.2855806	0.5456073	-0.82773006	0.12842304	-2.3643124	-2.2649	-0.7011125	0.3354324	-0.01864613	-0.2684842
465	-1.3099501	0.9762336	0.3632295	0.56979364	-0.82027876	0.04236675	-2.9665625	-2.767325	-0.9438	0.058142148	0.04688427	-0.13819245
466	-1.46072	0.96587896	0.47769552	0.590293	-0.8058397	-0.038649347	-3.4007876	-2.0021374	-1.4535125	0.060272798	-0.22779939	0.082380235
467	-1.6032426	0.94581586	0.5874759	0.6139565	-0.78200436	-0.10413404	-3.7296875	0.1824625	-1.5450875	0.10764902	-0.50434124	0.4137212
468	-1.7178603	0.90903044	0.6991494	0.64179295	-0.75281984	-0.14381133	-3.83185	2.0185	-1.589775	0.12528655	-0.71812814	0.35471347
469	-1.781651	0.8647616	0.8086999	0.6702899	-0.7198031	-0.17864013	-3.234825	0.422125	-1.6120499	0.3076918	-0.75817853	-0.051528063
470	-1.819092	0.8159113	0.90502024	0.682596	-0.69343746	-0.22918168	-1.15005	-2.5862374	-1.31945	0.3464559	-0.61685306	0.2918728
471	-1.9343152	0.74491984	0.96996397	0.69819134	-0.65050197	-0.2978145	-0.7264125	-1.36675	-1.2918125	0.010478362	-0.008412409	0.2610102
472	-1.9664618	0.7160377	0.9707978	0.70819575	-0.6290707	-0.31944722	-0.4252875	-1.0025125	-1.275725	-0.17527527	0.23722053	0.36756647
473	-1.990118	0.6874581	0.9714726	0.7166067	-0.6100288	-0.33713064	-0.075075	-1.1155375	-1.1991374	-0.24810517	0.24753644	0.3520083
474	-2.0202863	0.6417379	0.9511907	0.7278396	-0.58417267	-0.35820264	0.4580125	-0.73768747	-0.819225	-0.5655613	0.06348462	0.35778978
475	-2.027286	0.62688977	0.9343523	0.7306216	-0.5794968	-0.3601284	0.6358	-0.52305	-0.4893625	-0.7018754	0.08714206	0.4094709
476	-2.0277948	0.61947453	0.8954126	0.7216809	-0.5932578	-0.35572422	1.1114125	-0.6653625	0.51425	-0.7267726	0.1345422	0.4460453
477	-2.029536	0.6546988	0.8568772	0.68745244	-0.6459935	-0.33078527	1.9064375	-0.047849998	1.5188249	-0.5537062	0.25180387	0.17563237
478	-2.0235066	0.6916941	0.83382905	0.66751724	-0.68196565	-0.29775977	2.3076625	0.4096125	1.6753	-0.11308302	0.16545188	0.07788211
479	-1.9990176	0.7384493	0.8011198	0.64851755	-0.712677	-0.26614645	1.835075	-0.051975	1.1528	0.50132954	-0.28895912	-0.49674347
480	-1.9663565	0.7848982	0.76200205	0.6398569	-0.7207754	-0.26529822	-0.1219625	-1.1626999	-0.0647625	1.0437363	-1.0023593	-1.4983103
481	-1.9575887	0.80592114	0.73803633	0.6471312	-0.7107108	-0.2746429	-0.6934125	0.97377497	-0.738375	0.63482594	-0.64474785	-1.0372837
482	-1.9753124	0.79573894	0.74636596	0.67108953	-0.6984828	-0.24713859	-0.0836	3.06735	-0.6138	-0.009010035	0.30501187	0.048468865
483	-1.9397633	0.7767531	0.74994457	0.6875683	-0.6919316	-0.21862815	-0.029424999	1.1004125	-0.40205	-0.14801176	0.46073896	-0.17464404
484	-1.884678	0.7665714	0.7465909	0.68904126	-0.68927175	-0.22235857	0.0078375	-0.52195	-0.0253	0.06947556	-0.18667625	-0.31780964
485	-1.8804457	0.7610338	0.74601513	0.6874511	-0.6915945	-0.22005837	0.2866875	0.4378	0.144925	0.27198315	-0.5290936	0.34921739
486	-1.8839297	0.7630041	0.74378467	0.6900212	-0.69558567	-0.1983626	0.3133625	1.09835	0.0490875	0.19396962	-0.482396	0.6157938
487	-1.8576642	0.76900655	0.73192054	0.69328356	-0.68752646	-0.21443641	-1.3745875	-0.3304125	-0.24035	0.12456046	-0.6676264	-0.6380559
488	-1.8632106	0.7616843	0.7477916	0.68546	-0.6964417	-0.2107855	0.348425	1.169575	0.2684	-0.89972603	-0.39387944	0.290602
489	-1.8762683	0.76906794	0.7688581	0.67348313	-0.71951854	-0.16742423	0.78265	1.9976	1.3528625	-1.0632844	0.043784633	0.624412
490	-1.8266956	0.79603136	0.74944776	0.6462637	-0.7554163	-0.10491071	0.2761	1.2166	1.9232125	-0.3528845	0.04521748	0.726929
491	-1.737557	0.8470466	0.7043642	0.6201646	-0.7787726	-0.09069968	1.0572375	-0.2739	1.4826624	0.28186908	-0.28005004	0.92291677
492	-1.7197251	0.88510495	0.6960295	0.60821867	-0.79153794	-0.05342965	2.1170876	1.882375	0.4503125	0.76384556	-0.26136726	0.36424005
493	-1.6811879	0.91057634	0.6517721	0.60759854	-0.79381394	9.1217586E-4	1.0891374	1.8948874	0.1406625	0.646224	0.053339947	-0.7791996
494	-1.5858748	0.91687083	0.5911024	0.60697967	-0.794265	0.005978509	0.9007625	0.3917375	0.2385625	0.011873585	0.093852095	-0.33085617
495	-1.5688112	0.91718304	0.5875164	0.5995681	-0.79910356	0.035615973	1.3424125	0.650375	0.31735	-0.22138768	-0.02169152	0.18436874
496	-1.5237465	0.9251342	0.5449752	0.5898745	-0.8043659	0.066037744	1.3327875	0.2567125	0.47905	-0.2637736	-0.011735005	0.19226502
497	-1.4264482	0.94061494	0.44452816	0.572056	-0.81127137	0.11793006	1.3211	0.5979875	0.4929375	0.02560455	0.2263631	-0.097945355
498	-1.3801221	0.9457751	0.39409524	0.56764436	-0.81094	0.13954605	1.0327625	0.7225625	0.28325	0.092187494	0.14569537	-0.26564696
499	-1.304451	0.9449567	0.3284868	0.55778056	-0.809264	0.18245567	1.0646625	0.597025	0.3023625	0.001959504	0.11079304	-0.09071255
500	-1.2652528	0.9436617	0.29335907	0.5494812	-0.80904996	0.20694375	1.0891374	0.7005625	0.3961375	-0.083930776	0.0925362	-0.10683671
501	-1.2220778	0.9431404	0.25560576	0.5379544	-0.8102477	0.23112926	1.1369874	0.692175	0.571725	-0.08871893	0.027373126	-0.17404974
502	-1.177224	0.94472754	0.21678418	0.5256749	-0.8126629	0.2501239	0.97845	0.87436247	0.652575	0.08074714	-0.049309626	-0.32035324
503	-1.1391598	0.948404	0.18402548	0.5131133	-0.81619614	0.2643026	0.45168748	0.7654625	0.67485	0.1955564	-0.01407909	-0.40895092
504	-1.1039642	0.9533953	0.15848702	0.502386	-0.82074547	0.2707438	0.0015125	0.897325	0.58341247	0.26714	0.041739386	-0.27166125
505	-1.0589081	0.9682768	0.14303866	0.48439455	-0.826393	0.28592622	-0.2369125	0.6639875	0.1247125	0.5627003	0.022218667	-0.3654369
506	-1.0398209	0.9721403	0.14545532	0.4841264	-0.82792205	0.28192866	-0.241175	-0.062425	0.061875	0.4963017	0.016912892	-0.31067485
507	-1.0418066	0.9751286	0.15476324	0.4866109	-0.82975817	0.2720807	-0.4582875	-0.388025	-0.018975	0.42990285	-0.11478311	-0.3825853
508	-1.0559508	0.9782498	0.16589963	0.49330756	-0.83107513	0.2554976	-0.6870875	-0.71885	-0.2871	0.47468942	-0.29267105	-0.5446872
509	-1.0837196	0.9813361	0.18689606	0.50656915	-0.8318405	0.22526944	-1.1776875	-1.719575	-0.43725	0.47977638	-0.24013197	-0.48815933
510	-1.1342971	0.9825845	0.22130199	0.52691424	-0.83027154	0.17979982	-1.582075	-2.12465	-0.769175	0.456465	-0.10275602	-0.15268974
511	-1.218201	0.9811972	0.2749687	0.54928684	-0.82644933	0.120759	-2.3398376	-2.2628374	-0.9458625	0.22919942	-0.06977386	-0.15826665
512	-1.4474345	0.9625649	0.44306406	0.5968813	-0.80184674	-0.0095891375	-2.8633	-1.155275	-1.4364625	-0.04316567	-0.4305691	0.30887046
513	-1.6504236	0.9088711	0.6380298	0.64011914	-0.7600844	-0.10879823	-4.065875	0.694375	-1.3385625	-0.15499681	-0.7728361	-0.40332714
514	-1.7201397	0.87378794	0.7536461	0.6553178	-0.73583156	-0.16860536	-2.8304374	-1.4872	-1.0267125	0.060477335	-0.6679452	0.081755206
515	-1.801458	0.8357399	0.85863614	0.6600539	-0.7170338	-0.22250526	-1.7906625	-1.7917625	-0.805475	0.10997668	-0.55096316	0.44635844
516	-1.8794734	0.8066025	0.91554606	0.66631234	-0.697734	-0.26174954	-1.7587625	-0.80355	-0.884125	0.105354324	-0.27168494	0.23789634
517	-1.9346374	0.7799529	0.95406663	0.6813987	-0.6749513	-0.28187528	-1.403325	-0.2770625	-1.0714	0.069060065	0.09738249	0.32285386
518	-1.957575	0.7489264	0.9794119	0.69455135	-0.65195745	-0.30309522	-1.0393625	-0.659175	-1.1396	0.015846208	0.25359353	0.33509827
519	-1.9768422	0.7178442	0.99748755	0.70470643	-0.63157296	-0.32221374	-0.5795625	-0.7574875	-1.08845	-0.15516514	0.18244454	0.32904857
520	-1.9955783	0.69010085	1.0056508	0.7122204	-0.61534697	-0.33675954	-0.1942875	-0.746075	-0.92675	-0.4568687	0.1141237	0.33564332
521	-2.00964	0.6677811	1.0044279	0.71581966	-0.605202	-0.34734744	0.1398375	-0.734525	-0.5935875	-0.6892141	0.13231215	0.39424348
522	-2.0203998	0.6527195	0.99655753	0.7154224	-0.60269386	-0.35248893	0.4750625	-0.6193	-0.1923625	-0.7681288	0.19627182	0.4711434
523	-2.027461	0.6470085	0.9852514	0.70983404	-0.6095692	-0.35196397	0.91245	-0.625625	0.3023625	-0.72951293	0.24484442	0.5028355
524	-2.030643	0.6524504	0.97075766	0.69705313	-0.62717026	-0.34654167	1.4647875	-0.7733	0.8111125	-0.61040175	0.26784307	0.41362116
525	-2.032143	0.67133695	0.9505648	0.6792088	-0.65547794	-0.3291525	2.226675	-0.2341625	1.2709125	-0.5115177	0.34426996	0.2699323
526	-2.0271559	0.70454496	0.9218192	0.6624133	-0.6912706	-0.28752506	2.8194375	0.7057875	1.5134625	-0.16833076	0.3641605	0.11576665
527	-1.9446702	0.7988888	0.8234756	0.6357243	-0.7304378	-0.24825865	-0.143275	-1.621125	-0.3584625	1.2668293	-0.90523493	-1.5341114
528	-1.934987	0.82133627	0.7926779	0.6441631	-0.71790874	-0.26263678	-0.4560875	0.27665	-0.9629125	0.71903265	-1.01492	-1.0387853
529	-1.9376028	0.78689593	0.7957775	0.68035257	-0.69847834	-0.22037673	-0.1879625	1.3915	-0.2924625	-0.52734035	0.43139878	-0.34547955
530	-1.8906504	0.77536404	0.79480046	0.67697465	-0.6999321	-0.22609289	-0.2475	-0.7429125	0.2971375	-0.26585844	-0.3224991	-0.30438113
531	-1.8878368	0.7746836	0.8004693	0.6674585	-0.7040193	-0.24119137	-0.36355	-0.129525	0.423775	0.36965165	-0.7092376	-0.03903799
532	-1.9145466	0.7800664	0.8155241	0.67099845	-0.7051939	-0.22755305	-0.193325	1.2951125	-0.0785125	0.5623349	-0.43659514	0.5815745
533	-1.9035201	0.7837943	0.81972057	0.6770021	-0.70063317	-0.22382672	-0.7445625	0.2525875	-0.2094125	-0.0037145661	-0.14646162	0.24064629
534	-1.8882409	0.77885884	0.82639784	0.66962487	-0.7080977	-0.22252455	0.117425	0.757075	0.4855125	-0.7948084	-0.17080142	0.13425238
535	-1.8952619	0.7847152	0.84243464	0.6587678	-0.72758216	-0.18964702	0.8965	1.665675	1.3580875	-0.81178004	-0.04234139	0.4679345
536	-1.8620257	0.80741847	0.83240926	0.6381415	-0.7541268	-0.1529229	0.758175	0.886875	1.7774625	-0.13722411	-0.024665264	0.86699015
537	-1.8122911	0.8452259	0.8115911	0.6151468	-0.77641094	-0.13452774	1.3199999	-0.3106125	1.275175	0.3699755	-0.25264105	0.8921271
538	-1.790793	0.8817705	0.7941669	0.60528004	-0.7895433	-0.097849496	2.2661376	1.42395	0.4258375	0.6322276	-0.123499505	0.35075468
539	-1.7521464	0.9065445	0.74442136	0.60551655	-0.7940176	-0.04693544	1.1870375	1.5442625	0.1821875	0.46278614	0.1140941	-0.81239176
540	-1.6635717	0.9165025	0.68278927	0.6035208	-0.7959378	-0.03953251	0.8262375	-0.21945	0.1353	0.020439446	0.030601375	-0.3778987
541	-1.640521	0.9201292	0.6640127	0.5993077	-0.8000118	-0.011340499	1.295525	0.5269	0.1098625	-0.08595911	-0.0771594	0.23080534
542	-1.5416852	0.9349399	0.56391114	0.58547366	-0.808654	0.0511527	1.4785374	0.17407499	0.406725	-0.2121862	0.12221671	0.13069746
543	-1.494899	0.9409837	0.51149017	0.5782562	-0.81153965	0.07962636	1.3657875	0.6367625	0.41525	-0.13808796	0.23978128	-0.10562024
544	-1.4469473	0.9461654	0.46039692	0.57062757	-0.81390566	0.10610841	1.1050875	0.6785625	0.3939375	-0.10385387	0.1591656	-0.26594025
545	-1.3984683	0.95044327	0.41703174	0.56417793	-0.81556404	0.12599932	0.9497125	0.6199875	0.3344	-0.00393325	0.0377812	-0.13222256
546	-1.3612362	0.95364505	0.38468343	0.55720764	-0.81590974	0.1520795	1.085975	0.941325	0.3950375	0.013021736	0.07381497	-0.012217104
547	-1.3172144	0.95435286	0.34866732	0.5466957	-0.817021	0.18143266	1.2200375	0.953975	0.5344625	-0.010808892	0.10856537	-0.09897089
548	-1.2221959	0.9591809	0.27237257	0.525519	-0.82164705	0.21918689	0.9752875	0.68488747	0.73562497	0.13146876	0.025316795	-0.3557771
549	-1.1683031	0.9675282	0.22678272	0.5101856	-0.827276	0.23375696	0.0727375	0.87436247	0.391875	0.26667985	0.0290038	-0.17025542
550	-1.1472857	0.97319424	0.21601701	0.50206923	-0.82927823	0.24401084	0.0419375	1.016675	0.2492875	0.4417687	-0.021990893	-0.19222185
551	-1.1246434	0.97737664	0.21135297	0.49724057	-0.8308527	0.24850139	-0.141075	0.3887125	0.160875	0.601842	0.041357286	-0.36389893
552	-1.1089344	0.9802009	0.21126382	0.49721465	-0.8323553	0.24347392	-0.2688125	-0.2300375	0.0917125	0.5642532	0.037966978	-0.33082867
553	-1.1128304	0.98293996	0.21782368	0.50067246	-0.8336889	0.23153245	-0.4657125	-0.572275	-0.120037496	0.525933	-0.13573001	-0.36089024
554	-1.1312482	0.985919	0.23054829	0.51000804	-0.8332845	0.21176857	-0.7189875	-1.2222375	-0.3328875	0.50049657	-0.3212568	-0.51910806
555	-1.1651694	0.9857618	0.25241163	0.52500033	-0.8325012	0.1750248	-1.27985	-2.01465	-0.573375	0.4163911	-0.20531227	-0.3980676
556	-1.3223433	0.97928286	0.3517114	0.56643426	-0.82171005	0.057113446	-2.6558125	-2.184325	-1.099175	0.13417736	-0.10917675	-0.13682292
557	-1.5604681	0.9486238	0.53656524	0.5883956	-0.808083	-0.010462763	-2.9133499	-1.598025	-1.423675	0.02139035	-0.31098422	0.21382667
558	-1.5604681	0.9486238	0.53656524	0.6106443	-0.7887345	-0.06579434	-3.2773125	0.24419999	-1.408825	-0.03744858	-0.5637579	0.32623777
559	-1.6591446	0.9178854	0.63548493	0.63548946	-0.76411974	-0.10766285	-3.59975	1.1496375	-1.5599375	-0.020504726	-0.7595347	0.030797409
560	-1.724626	0.8807513	0.73894244	0.6583198	-0.7360098	-0.15563315	-3.250775	-0.3964125	-1.3811874	0.038423352	-0.7263755	-0.15384698
561	-1.785254	0.8379427	0.83833116	0.66983455	-0.7127826	-0.20634933	-1.7587625	-1.6619625	-1.0374374	0.045455948	-0.6592816	0.29645637
562	-1.854258	0.8013615	0.90659213	0.6769354	-0.69326586	-0.24588317	-1.2724249	-1.4557124	-1.0395	0.12653556	-0.4177433	0.3327333
563	-1.9078659	0.77343065	0.93597126	0.6883462	-0.6718217	-0.27231002	-1.108525	-1.070575	-1.2023	0.09942137	-0.035624743	0.25599504
564	-1.9642317	0.71254766	0.96179956	0.7143636	-0.62517405	-0.31330428	-0.4720375	-0.755425	-1.2321374	-0.1154798	0.33668783	0.34572017
565	-2.00208	0.64408594	0.9475696	0.72744906	-0.5977326	-0.3359327	0.26427498	-0.711425	-0.8096	-0.61685276	0.09701395	0.35061163
566	-2.00208	0.64408594	0.9475696	0.73089844	-0.5909912	-0.34034404	0.5006375	-0.5858875	-0.5468375	-0.77799326	0.07519605	0.41598624
567	-2.0062299	0.63399273	0.93115747	0.7299162	-0.592477	-0.33986837	0.74855	-0.474925	0.02035	-0.81065017	0.117660515	0.43895096
568	-2.0067132	0.6327303	0.91402656	0.7217072	-0.60477036	-0.3357216	1.10825	-0.56705	0.58341247	-0.6793066	0.1702138	0.4018837
569	-2.0062904	0.64476466	0.8963999	0.7067107	-0.6268999	-0.3269153	1.5637875	-0.5325375	1.1070125	-0.60957	0.2374962	0.27228227
570	-2.0052774	0.66953194	0.87532854	0.6867027	-0.6599802	-0.30361605	2.3373625	0.011825	1.6082	-0.5214581	0.30482724	0.23806559
571	-1.9587907	0.7590855	0.80182225	0.64765537	-0.7239705	-0.23606437	1.5285875	-0.3053875	0.80575	0.72604495	-0.28500503	-0.78870624
572	-1.9249272	0.80349576	0.7581454	0.6459353	-0.7215473	-0.24789995	-0.6040375	-1.2841125	-0.6128375	1.2019699	-1.0604099	-1.629669
573	-1.9290519	0.81037676	0.7421098	0.6587872	-0.7066866	-0.25673088	-0.59125	1.2104125	-0.951225	0.37954614	-0.62042344	-0.72634256
574	-1.9067441	0.77353734	0.752389	0.67996764	-0.6968334	-0.22668111	-0.026124999	2.6895	-0.45319998	-0.31310222	0.33261317	0.044418108
575	-1.8845031	0.7644669	0.76261514	0.68482786	-0.69180727	-0.22744468	-0.504075	-0.8999375	0.1417625	0.2374963	-0.70585334	-0.37327397
576	-1.902828	0.76236707	0.77495635	0.68491834	-0.68924683	-0.23482607	-0.2795375	0.510125	-0.231825	0.58216125	-0.6876186	0.425453
577	-1.8950843	0.7523989	0.78329724	0.69367176	-0.6807088	-0.23403405	-0.7679375	0.3133625	-0.43821248	0.22161874	-0.2680221	0.4058995
578	-1.9063394	0.7487696	0.79802644	0.6890064	-0.6820257	-0.24377947	-0.2805	-0.50215	0.54505	-0.8659636	-0.057225123	0.195966
579	-1.9037322	0.77970165	0.79927105	0.6688173	-0.7082573	-0.22443768	0.823075	1.46575	1.3410375	-1.1265085	-0.07564178	0.34920835
580	-1.8255404	0.8631562	0.7669507	0.62329006	-0.76554304	-0.15738827	1.410475	0.2954875	1.52625	0.37568548	-0.4077444	1.0472965
581	-1.7811012	0.8929136	0.7203704	0.6157988	-0.78479296	-0.06487567	1.066725	1.6783249	0.0704	0.5431157	0.09927307	-0.74124056
582	-1.6909428	0.9018948	0.6601558	0.61155206	-0.7863816	-0.08321792	0.69107497	-0.0331375	0.2567125	-0.055695795	0.08862934	-0.37182796
583	-1.7101742	0.9036666	0.6801697	0.60310847	-0.795955	-0.045089934	1.2454749	0.799975	0.098037496	-0.12829193	-0.07143035	0.22990644
584	-1.6576908	0.92009425	0.6292764	0.5896939	-0.8071965	-0.0034708444	1.27325	0.5781875	0.2035	-0.14463273	-0.07924085	0.1282415
585	-1.5883876	0.9388187	0.56788224	0.58440286	-0.8107741	0.020882566	1.2551	0.1447875	0.36519998	-0.17258325	0.08519305	0.13335292
586	-1.5446768	0.94437253	0.523095	0.5771148	-0.81495845	0.04580852	1.3199999	0.4431625	0.48125	-0.12156435	0.27570772	0.06622512
587	-1.5034184	0.9512806	0.47795188	0.56808305	-0.8192239	0.073967226	1.3828375	0.4420625	0.555775	-0.082043305	0.2540863	-0.10780515
588	-1.4539295	0.95869815	0.42934316	0.5603076	-0.8220994	0.09759704	1.3594625	0.197175	0.487575	0.025625063	0.100493886	-0.11675607
589	-1.3731377	0.9601948	0.3421453	0.55287397	-0.82025826	0.14430404	1.07525	0.77288747	0.391875	0.0071718544	0.07132862	-0.20699514
590	-1.3276526	0.96185136	0.30183247	0.5432781	-0.8223046	0.16727526	1.0316625	0.6367625	0.5248375	-0.07966952	0.07479698	-0.21039455
591	-1.283655	0.9649933	0.26508075	0.5310372	-0.82501096	0.1915032	1.14235	0.736175	0.699325	0.0031064895	0.071387134	-0.12728299
592	-1.2380672	0.96939874	0.22419032	0.52505064	-0.82503414	0.20726337	0.771925	1.051325	0.7046875	0.19371083	0.114636555	-0.24232453
593	-1.207351	0.96894246	0.20174846	0.51611614	-0.827182	0.22070657	0.374	0.6901125	0.5418875	0.3120184	0.13757952	-0.24700625
594	-1.1743885	0.9728845	0.18186814	0.50913066	-0.82879126	0.23066872	0.2388375	0.6776	0.2662	0.36559418	0.015136832	-0.19947606
595	-1.1513549	0.9768046	0.16869003	0.50412005	-0.8298217	0.23785663	-0.0209	0.5550875	0.1640375	0.38476378	-0.08536172	-0.3239881
596	-1.133234	0.9785895	0.16247818	0.5020226	-0.8317626	0.23550208	-0.2858625	0.0567875	0.11935	0.41326788	-0.0669071	-0.29716873
597	-1.1310182	0.98171836	0.16731408	0.50261897	-0.8338824	0.22656538	-0.517825	-0.20899999	0.0097624995	0.4719988	-0.08477202	-0.26948586
598	-1.1428423	0.9855853	0.17966178	0.50867057	-0.8340533	0.21195894	-0.6370375	-0.4989875	-0.3818375	0.56360775	-0.22496817	-0.3324482
599	-1.1680291	0.9875357	0.20176283	0.5219391	-0.8315141	0.18836404	-1.0297375	-1.200375	-0.625625	0.53657776	-0.25850114	-0.41730902
600	-1.2096637	0.98357093	0.23427962	0.542396	-0.8266471	0.14757557	-1.501225	-1.9173	-0.9480625	0.49960706	-0.1471602	-0.2163829
601	-1.2830697	0.97621393	0.2853991	0.5653206	-0.81929904	0.09208043	-2.286625	-2.0890374	-1.1119624	0.3142971	-0.13544099	-0.1945269
602	-1.3813821	0.9642292	0.35579008	0.5870567	-0.8087828	0.023493012	-2.7207124	-2.206325	-1.2258124	5.12126E-4	-0.2670582	-0.033385977
603	-1.5005425	0.9479895	0.44765136	0.6068002	-0.7932634	-0.042943113	-3.0826125	-1.2013375	-1.32055	-0.13666259	-0.44913724	0.23090948
604	-1.6157819	0.9241441	0.5420322	0.6266095	-0.7727745	-0.09745415	-3.8328125	0.832425	-1.2705	-0.2091783	-0.6458799	0.14454895
605	-1.7071432	0.8927399	0.64652175	0.64979917	-0.7464691	-0.14093329	-3.9477625	1.2574375	-1.3704625	-0.16865234	-0.79645145	-0.036023904
606	-1.7704242	0.8539369	0.7610013	0.66648716	-0.71972346	-0.19263989	-2.7484875	-1.3091375	-1.0789624	0.08050061	-0.66376275	0.10120258
607	-1.8333478	0.81268656	0.8557176	0.67045027	-0.70057464	-0.2429177	-1.435225	-1.825175	-0.82885	0.22354051	-0.45466998	0.3659605
608	-1.9040338	0.78286487	0.9073763	0.67718357	-0.6813758	-0.2765268	-1.24465	-0.99825	-1.0098	0.23096634	-0.15307371	0.32342282
609	-1.9499326	0.756992	0.93132716	0.6954664	-0.6569557	-0.2899197	-0.9372	-0.486475	-1.2981375	0.11727063	0.1497233	0.38972095
610	-1.9617847	0.72488475	0.939961	0.7100558	-0.63276905	-0.30780116	-0.6136625	-0.858	-1.3695	-0.034107853	0.2661024	0.36223543
611	-1.9755244	0.6929264	0.9448728	0.7187198	-0.6126721	-0.3277069	-0.254925	-1.1103125	-1.144825	-0.27957603	0.19228984	0.30405247
612	-1.9940443	0.6654559	0.94239163	0.7239863	-0.5974368	-0.3438467	0.0792	-1.068375	-0.968275	-0.5299037	0.09407287	0.32121673
613	-2.010731	0.64476997	0.93376005	0.72586834	-0.5879674	-0.35598725	0.3845875	-1.035925	-0.6914875	-0.70568484	0.08143834	0.40817377
614	-2.0240102	0.6310543	0.91913223	0.72517276	-0.58521974	-0.36188376	0.61448747	-0.7062	-0.297825	-0.7585061	0.14729927	0.49196023
615	-2.0326743	0.62535065	0.9024857	0.720965	-0.5914779	-0.36011195	0.968825	-0.517825	0.1992375	-0.7181057	0.19137083	0.5192404
616	-2.0343664	0.63006586	0.88436437	0.7112126	-0.60744536	-0.35285172	1.3327875	-0.4602125	0.6950625	-0.61040217	0.17441784	0.37629208
617	-2.0324852	0.6469947	0.8636144	0.6967991	-0.63357484	-0.33521834	1.9383374	-0.062425	1.2186625	-0.5345208	0.21878892	0.2215639
618	-2.02391	0.67669636	0.8386109	0.6797861	-0.66852224	-0.30047697	2.4374626	0.532125	1.5752	-0.23503074	0.23304825	0.11454423
619	-1.996803	0.720311	0.8016421	0.6619524	-0.7013144	-0.2632385	2.15545	0.21065	1.3134	0.30093756	-0.036407366	-0.27865756
620	-1.957831	0.7674243	0.75830394	0.6532533	-0.7132262	-0.25275663	0.266475	-0.9752875	-0.100925	0.93676203	-0.6975842	-1.2449956
621	-1.9366441	0.7944352	0.72460014	0.6556585	-0.70442843	-0.27057314	-0.5806625	-0.2990625	-0.639375	0.76299596	-0.93318623	-1.3199468
622	-1.9593124	0.7860362	0.72673345	0.67305666	-0.69180304	-0.2602314	-0.1720125	2.0906875	-0.6862625	0.10278431	-0.062325384	-0.19522728
623	-1.9507673	0.7678357	0.732508	0.68861353	-0.6869378	-0.2307491	0.085525	1.5976125	-0.2338875	-0.28433222	0.44748828	0.007920357
624	-1.9029903	0.7585706	0.728141	0.6907125	-0.68565744	-0.2282707	-0.0730125	-0.1640375	-0.0295625	-0.061354697	-0.12290523	-0.3009801
625	-1.8889797	0.75609267	0.7274657	0.68837947	-0.68571764	-0.23503643	-0.304975	-0.0457875	0.0928125	0.3464829	-0.69949645	-0.16159967
626	-1.8911091	0.75478256	0.7359247	0.6982707	-0.6759791	-0.23406698	-1.073325	0.0077	-0.23925	0.031897537	-0.45918912	0.023669424
627	-1.8900193	0.7454541	0.75072795	0.68868166	-0.6825103	-0.24334069	-0.141075	-0.06875	0.4747875	-0.90611285	-0.17242853	0.2431419
628	-1.908844	0.7495035	0.7712611	0.6798929	-0.69965243	-0.21805811	0.707025	1.6259375	1.2709125	-1.02526	0.053169236	0.5295719
629	-1.8907812	0.7680887	0.76779616	0.6606114	-0.72865075	-0.17882329	0.4569125	0.8460375	1.781725	-0.27906704	0.0016323773	0.8885022
630	-1.8393372	0.8074914	0.749164	0.6374567	-0.7523651	-0.16405223	1.1796125	-0.161975	1.3836625	0.35784912	-0.32765022	1.0051378
631	-1.826481	0.84383637	0.7420255	0.62633234	-0.76877046	-0.12655857	2.276725	1.4636875	0.5589375	0.6365576	-0.31593907	0.62411207
632	-1.6914786	0.8853957	0.6323498	0.6278269	-0.7771291	-0.03493695	0.7975	0.4472875	0.1896125	-0.06830092	0.033291202	-0.71327406
633	-1.6043223	0.8981815	0.57000035	0.6134391	-0.7892076	0.012690918	1.198725	0.3729	0.3982	-0.23606904	-0.025471367	0.19943446
634	-1.559841	0.9080851	0.52874404	0.60439897	-0.7953208	0.038519517	1.3646874	0.25465	0.5823125	-0.20164666	0.10714035	0.24099118
635	-1.4701406	0.9263883	0.43518943	0.5894068	-0.80145687	0.097895026	1.3476375	0.79695	0.4323	0.13953815	0.2165486	-0.15008157
636	-1.4197083	0.9291484	0.38993415	0.594939	-0.79525256	0.11374707	1.3498375	0.5049	0.340725	0.13625365	0.11777547	-0.17296726
637	-1.393701	0.9194624	0.36437923	0.5917071	-0.79465646	0.13312113	1.198725	0.4357375	0.3460875	0.065984	0.08078797	-0.20723426
638	-1.3600149	0.9185237	0.3289254	0.58393455	-0.7968333	0.15295151	1.10825	0.260975	0.4844125	-0.09127397	0.04932562	-0.21217167
639	-1.3239747	0.9215629	0.29129097	0.57299984	-0.8002624	0.17483872	1.312575	0.2630375	0.6611	-0.15770929	0.04052236	-0.10867663
640	-1.256527	0.93306965	0.21443893	0.5519351	-0.8069739	0.20851354	0.5165875	0.90365	0.6259	0.2293035	0.08098002	-0.34755024
641	-1.2191052	0.93749106	0.18546726	0.54367626	-0.8100955	0.2178961	0.1621125	0.692175	0.4280375	0.26927483	0.06452977	-0.22656584
642	-1.1954054	0.9431464	0.17380007	0.5369952	-0.8123194	0.22603181	0.0803	0.6304375	0.25025	0.31234732	-0.08512709	-0.19116943
643	-1.1769211	0.94764763	0.16682786	0.53280836	-0.81424433	0.22899379	-0.1199	0.27555	0.18535	0.39196226	-0.071688354	-0.21676137
644	-1.1661805	0.95087093	0.1657486	0.53253335	-0.8152392	0.22607632	-0.193325	-0.0551375	0.0066	0.45543307	-0.06090761	-0.20314053
645	-1.1679893	0.95326924	0.1701475	0.5345966	-0.81635016	0.21701665	-0.5869875	-0.1368125	-0.07535	0.35205477	-0.19415447	-0.37195548
646	-1.1806154	0.95483655	0.18229257	0.5397314	-0.817151	0.20067774	-0.8190875	-0.410025	-0.3232625	0.3906509	-0.35879704	-0.3944545
647	-1.2066844	0.95705765	0.20802407	0.54851115	-0.8171301	0.17536102	-1.2351625	-0.9532875	-0.3265625	0.37453172	-0.314873	-0.48045278
648	-1.2476907	0.95657605	0.24307479	0.5614021	-0.8168642	0.1299137	-1.9556625	-1.7686625	-0.558525	0.40292513	-0.0902765	-0.3737516
649	-1.3202473	0.9568779	0.29964867	0.57858986	-0.8125881	0.06520374	-2.6569126	-2.2198	-0.7893875	0.27564564	0.0015789093	-0.17112118
650	-1.4284309	0.9513194	0.3820889	0.59677196	-0.801966	-0.0055823927	-2.8697624	-2.1696124	-1.1715	0.076010905	-0.0927282	0.13055182
651	-1.5499402	0.9368464	0.47850364	0.61618507	-0.783973	-0.07084625	-3.021975	-1.2337875	-1.3960375	-0.041261528	-0.26362643	0.38185543
652	-1.6609359	0.90998906	0.5694442	0.6370988	-0.76083094	-0.12065795	-3.4847999	0.8053375	-1.3662	-0.0739031	-0.53897035	0.21779862
653	-1.799354	0.8326619	0.763594	0.67440313	-0.7046366	-0.21905403	-2.16095	-1.8462125	-1.083225	0.24842568	-0.72819215	0.18133232
654	-1.8670042	0.7906601	0.845168	0.67635185	-0.6855735	-0.26805714	-1.0883125	-2.2356124	-0.9108	0.21814361	-0.4859862	0.5151519
655	-1.9337867	0.76191074	0.8772717	0.6794834	-0.66723585	-0.30399916	-1.056275	-1.5373875	-1.0129625	0.09024136	-0.2076877	0.27016124
656	-1.9813663	0.73754597	0.89236265	0.68647474	-0.64652765	-0.33177128	-0.9147875	-1.103025	-1.12365	-0.041214816	0.054983307	0.2952728
657	-2.0141132	0.71033615	0.90352994	0.69476366	-0.6255676	-0.35395807	-0.5220875	-0.972125	-1.18855	-0.15113983	0.20741774	0.36466146
658	-2.0375047	0.6825907	0.9080195	0.7037842	-0.6072857	-0.36770806	-0.175175	-0.5754375	-1.1279125	-0.3534325	0.17150587	0.35313618
659	-2.0508888	0.6582783	0.9024489	0.7126356	-0.59273016	-0.37435088	0.06215	-0.432025	-0.951225	-0.58430225	0.08886164	0.37048236
660	-2.0542607	0.6387301	0.8911497	0.71825373	-0.58318454	-0.3785823	0.2536875	-0.4549875	-0.6447375	-0.687061	0.08104389	0.44719085
661	-2.0555918	0.6251116	0.87804747	0.71938145	-0.5804981	-0.38056475	0.4483875	-0.4665375	-0.2360875	-0.6913539	0.13136965	0.49605402
662	-2.0595088	0.6239988	0.8513235	0.7024754	-0.6035947	-0.3761896	1.3476375	-0.678975	0.8014875	-0.6919708	0.18963449	0.39739752
663	-2.058629	0.67487556	0.80935615	0.6690725	-0.6712439	-0.31794763	2.6736875	1.023	1.6093	-0.19476056	0.26768124	0.13374272
664	-1.9781151	0.7723212	0.7228748	0.64661086	-0.7092554	-0.27958634	-0.6444625	-1.4400375	-0.3232625	1.1641997	-1.0582217	-1.7047101
665	-1.9694612	0.79151744	0.6987341	0.6572069	-0.69309515	-0.29498407	-0.8020375	0.8586875	-1.1364375	0.7185271	-1.0400393	-1.0479363
666	-1.9958508	0.7729233	0.7135018	0.6848074	-0.6771983	-0.26787868	-0.086899996	2.8402	-0.7085375	-0.16462392	0.375975	-0.039460752
667	-1.9589033	0.74769706	0.7137129	0.697204	-0.6732928	-0.24474686	-0.0633875	0.87119997	-0.07645	-0.36642417	0.6340421	-0.14240909
668	-1.9107274	0.74044096	0.71543664	0.6913738	-0.6781884	-0.24774992	-0.1368125	0.4756125	0.1716	0.41432953	-1.0138606	0.7916796
669	-1.9165365	0.7450045	0.7222435	0.6937026	-0.67077535	-0.26106414	-1.57465	-0.1012	-0.2179375	0.25430965	-0.8047598	0.01702746
670	-1.923975	0.7393169	0.74087447	0.6854273	-0.67495507	-0.2719232	-0.4093375	0.1280125	0.35035	-0.7514823	-0.22860764	0.21707612
671	-1.9469092	0.74030507	0.7708778	0.6796626	-0.68938583	-0.24924585	0.78155	1.5076874	1.1378125	-1.0748767	0.16869773	0.5724875
672	-1.931583	0.7542163	0.7705424	0.6630238	-0.7184276	-0.20875439	0.6122875	1.0429375	1.6869875	-0.30441526	-0.027856816	0.9450388
673	-1.8815459	0.79286194	0.75174594	0.6440031	-0.7405125	-0.19031174	1.115675	0.2242625	1.1889625	0.3661957	-0.46499208	1.0161986
674	-1.8633873	0.8268616	0.74444395	0.63849205	-0.7543358	-0.15040892	1.9309125	2.001725	0.2982375	0.68179846	-0.32934922	0.5615251
675	-1.8226894	0.85123885	0.70810485	0.6460229	-0.75736815	-0.09146176	1.3498375	2.26545	-0.07645	0.562234	0.09233759	-0.56572485
676	-1.7307754	0.8590186	0.6543973	0.6457291	-0.7585589	-0.08330396	0.91135	0.1720125	0.2077625	-0.05592789	0.10871182	-0.35970828
677	-1.7052392	0.8598581	0.640854	0.6370102	-0.7695554	-0.03632443	1.386	0.5698	0.259875	-0.2801295	-0.041958362	0.20034583
678	-1.5904868	0.8940644	0.5160581	0.6145253	-0.78822774	0.019307217	1.27325	0.6535375	0.5929	-0.15194121	0.17935926	0.08956129
679	-1.5510983	0.9055672	0.47326922	0.60658544	-0.793076	0.04900718	1.1636626	1.0000376	0.4769875	-0.0011879127	0.16880992	-0.04146896
680	-1.5031718	0.91435546	0.43318987	0.5996064	-0.7960396	0.07816774	1.2178375	0.919325	0.473825	0.026800338	0.047828563	-0.0645133
681	-1.4543015	0.9195918	0.39536527	0.59232575	-0.7986284	0.10324772	1.2115124	0.6567	0.5302	0.045090176	0.07182407	-0.120984726
682	-1.4102252	0.92388356	0.35813823	0.5835342	-0.80131245	0.1292416	1.3349875	0.4890875	0.603625	0.04684806	0.12119013	-0.073385336
683	-1.3163694	0.93316114	0.26627484	0.56386644	-0.8052401	0.18154988	1.2413499	0.897325	0.6472125	0.11044549	0.14927676	-0.34454682
684	-1.2733866	0.9353627	0.22390035	0.556518	-0.80717087	0.19514135	0.526075	0.5049	0.54395	0.23491928	0.11022895	-0.3852484
685	-1.2409111	0.938148	0.1984661	0.550292	-0.80947655	0.20308506	0.234575	0.4211625	0.28215	0.30363765	-0.053015783	-0.15037863
686	-1.2217642	0.9428604	0.1833194	0.5447575	-0.8108892	0.21216798	-0.043175	0.951775	0.1705	0.28409567	-0.16169499	-0.2806695
687	-1.2045271	0.94532347	0.17737693	0.54020584	-0.8140285	0.21178377	-0.5209875	0.4252875	0.1810875	0.35081866	-0.076995976	-0.37497947
688	-1.1965681	0.94978815	0.18611452	0.53889215	-0.8169703	0.20364587	-0.5093	-0.019524999	0.1056	0.52043504	-0.018396677	-0.18824832
689	-1.2064844	0.9552728	0.20317277	0.54094017	-0.81859386	0.19132484	-0.5710375	-0.430925	-0.0977625	0.5350079	-0.10006055	-0.28796092
690	-1.2248082	0.9589937	0.22117665	0.54958016	-0.81739646	0.17070922	-0.764775	-1.12915	-0.40094998	0.49456358	-0.27679312	-0.47193247
691	-1.2581149	0.95816797	0.24487396	0.5639555	-0.81481785	0.13169344	-1.5064499	-1.934075	-0.66385	0.4230934	-0.18559502	-0.41384938
692	-1.3204428	0.95437574	0.28529853	0.584163	-0.8078018	0.07434618	-2.1184626	-2.38205	-1.0022374	0.37913978	-0.11574563	-0.1143003
693	-1.5302429	0.92746323	0.43117258	0.62420475	-0.7783596	-0.0619822	-2.9335625	-1.8115625	-1.44815	-0.04143715	-0.41664046	0.24241035
694	-1.6433059	0.90097445	0.516506	0.6436121	-0.75532424	-0.12068714	-3.47215	0.066275	-1.31725	-0.22251117	-0.6179632	0.19265962
695	-1.7380596	0.8660946	0.6083157	0.6658854	-0.72740513	-0.16369484	-3.9807625	1.3327875	-1.3715625	-0.19085482	-0.8606682	-0.050066624
696	-1.7995888	0.8262141	0.7094806	0.6855973	-0.69656867	-0.2099186	-3.289	-0.408925	-1.148125	0.0092039285	-0.7528655	0.027151026
697	-1.8521122	0.7811285	0.8079841	0.68931717	-0.6754435	-0.2606438	-1.5043875	-1.99485	-0.8012125	0.10854213	-0.5491285	0.56625545
698	-1.9171915	0.7482214	0.86656326	0.69231254	-0.656512	-0.2983504	-1.320275	-1.2610124	-0.9299125	0.12378833	-0.3249406	0.33841157
699	-1.9677596	0.7233198	0.8908921	0.7036105	-0.63646543	-0.3148989	-1.0978	-0.2979625	-1.1396	-0.024405604	-0.03295353	0.3402812
700	-1.9879767	0.6975987	0.9047224	0.71809715	-0.61331505	-0.32786924	-0.7508875	-0.301125	-1.2386	-0.13563538	0.20516518	0.42623314
701	-2.0076556	0.64071304	0.9145544	0.73495376	-0.57727367	-0.35484588	0.019524999	-0.6978125	-0.9735	-0.33383754	0.20235011	0.33853093
702	-2.0187688	0.6199282	0.90753007	0.74010956	-0.56624395	-0.36183226	0.35805	-0.6644	-0.770275	-0.5748649	0.093155265	0.37528792
703	-2.0245652	0.60480446	0.89431465	0.7413777	-0.5625324	-0.3650118	0.7337	-0.64968747	-0.411675	-0.76747864	0.05794529	0.45236656
704	-2.0283513	0.6016158	0.85486615	0.7259386	-0.5857167	-0.35953638	1.4658875	-0.8663875	0.7866375	-0.73736066	0.16288796	0.37493393
705	-2.0298903	0.61915654	0.8321386	0.70788574	-0.61484516	-0.3466707	2.129875	-0.3953125	1.2623875	-0.56996524	0.26917234	0.32720587
706	-2.029567	0.65200216	0.80508095	0.69155514	-0.6512136	-0.3114311	2.5268376	0.6336	1.52845	-0.21846646	0.24968456	0.20062071
707	-1.9678649	0.743452	0.72294885	0.6663915	-0.68746114	-0.2874664	-0.5445	-1.1897875	-0.3829375	1.1927369	-0.9062239	-1.5801177
708	-1.9705578	0.7611096	0.7045396	0.67879474	-0.6710616	-0.29703805	-0.830775	1.0135125	-1.0767624	0.72323895	-0.91629314	-0.92722803
709	-1.9554409	0.718018	0.7214513	0.7172201	-0.6498587	-0.25019222	0.09295	0.694375	-0.1934625	-0.41569105	0.53732044	-0.09587812
710	-1.9144895	0.71388894	0.7205322	0.7034706	-0.66343117	-0.2535859	0.407	0.466125	0.4992625	0.18418999	-0.5469664	0.64736265
711	-1.9202051	0.7226102	0.7210532	0.7023356	-0.6721194	-0.23301771	0.0174625	1.1171875	0.3375625	0.22538608	-0.7197308	0.5274061
712	-1.8964875	0.7357103	0.7133462	0.7065156	-0.66345674	-0.244903	-1.497925	0.3488375	-0.3106125	0.28614497	-0.97588587	-0.67517346
713	-1.9004873	0.72961795	0.7374855	0.70925754	-0.66687113	-0.2270548	0.4239125	1.6803875	0.1310375	-0.6289364	-0.43730316	0.560801
714	-1.8908167	0.7289868	0.7514072	0.7030621	-0.6832268	-0.19550464	0.725175	0.8210125	1.1070125	-0.8511813	0.11461828	0.72772175
715	-1.8481375	0.74612695	0.73515695	0.68492466	-0.70636857	-0.17674571	0.49101248	0.01705	1.418725	-0.3172335	0.093111664	0.70212793
716	-1.8241513	0.77715576	0.720818	0.6657189	-0.7268746	-0.16669992	0.9497125	-0.16293749	1.1719126	0.20655939	-0.18321715	0.7831067
717	-1.818821	0.80722684	0.7113711	0.6580211	-0.7409939	-0.13135196	1.8159624	1.700325	0.455675	0.6148689	-0.24727821	0.31739172
718	-1.7857888	0.83080035	0.67909896	0.6598519	-0.74636614	-0.08276663	1.5105749	1.4364625	0.0831875	0.48316035	-0.106126204	-0.372478
719	-1.6911298	0.8524552	0.6102565	0.6496619	-0.7584844	-0.04425051	1.199825	0.6912125	0.260975	-0.34671086	-0.023977375	0.08675816
720	-1.649334	0.85964537	0.5730261	0.6426053	-0.76553804	-0.018089075	1.2285625	0.32381248	0.4972	-0.37624446	0.009268917	0.18189642
721	-1.6079743	0.86960554	0.534602	0.633326	-0.7734225	0.005776816	1.3668875	0.238975	0.62067497	-0.26982448	0.11918702	0.22316813
722	-1.5274191	0.8929364	0.44921145	0.6202604	-0.78165984	0.06001741	0.97955	1.1004125	0.340725	0.05333285	0.07737847	-0.15073606
723	-1.4863857	0.896524	0.41983357	0.6156748	-0.7831428	0.08336157	0.9389875	1.0082875	0.341825	0.029279307	0.039824747	-0.10334628
724	-1.4476436	0.89907306	0.3948783	0.60743177	-0.7863148	0.10978655	1.0476125	0.8283	0.503525	-0.027416483	0.06857778	-0.050459333
725	-1.4034884	0.9037115	0.36235875	0.5960285	-0.79098964	0.13565645	1.2423126	0.60115	0.685575	-0.06992761	0.07712114	-0.098546356
726	-1.3590518	0.91090024	0.32384294	0.5836452	-0.7956928	0.15983818	1.2775126	0.6912125	0.782375	0.02419878	0.09335334	-0.2532174
727	-1.3166254	0.9185099	0.28311154	0.57550025	-0.7984912	0.17472419	0.7431875	0.7404375	0.7057875	0.18790956	0.11245142	-0.33822572
728	-1.2860641	0.92295814	0.25677243	0.56630814	-0.80226845	0.18702245	0.3623125	0.5215375	0.553575	0.27355427	0.06424095	-0.15827627
729	-1.2366168	0.93523526	0.22412015	0.55327886	-0.8072992	0.20363593	-0.23155	0.6461125	0.1747625	0.33612478	-0.11604938	-0.3656084
730	-1.2205417	0.9388578	0.22288138	0.5510517	-0.80957556	0.20061606	-0.3763375	0.175175	0.12155	0.3942083	-0.042717997	-0.21977508
731	-1.2206229	0.94273025	0.23343758	0.55092514	-0.81171584	0.19213603	-0.566775	-0.0771375	0.054449998	0.42124614	-0.055669498	-0.2562492
732	-1.2314994	0.9464064	0.24805504	0.55395013	-0.8135897	0.1747233	-0.895675	-0.4948625	-0.18287499	0.44502544	-0.21098216	-0.45495266
733	-1.2566538	0.95032465	0.27274367	0.56306505	-0.8127738	0.14722063	-1.124475	-1.2276	-0.395725	0.47964138	-0.29537606	-0.4418231
734	-1.3728597	0.9461939	0.35813084	0.59398025	-0.8030465	0.040262178	-2.366375	-2.3706374	-0.870375	0.27268645	-0.027947323	-0.026393676
735	-1.5893165	0.9172394	0.51363695	0.6347637	-0.7662194	-0.09643485	-3.1048875	-1.2766875	-1.5758874	-0.02049763	-0.5157378	0.3608538
736	-1.6981143	0.88331467	0.6023971	0.65660304	-0.73920804	-0.1475161	-3.7104375	0.85965	-1.4130875	-0.22796388	-0.78025675	0.14445801
737	-1.7777919	0.8431173	0.6940038	0.68081963	-0.70761144	-0.18731853	-3.96165	1.146475	-1.3407625	-0.113740094	-0.8372357	-0.12685578
738	-1.8275464	0.79806334	0.7960214	0.6950304	-0.6792564	-0.23422405	-2.4930124	-1.2170125	-0.97996247	0.12036721	-0.60392404	0.3054779
739	-1.8802423	0.75557953	0.8804657	0.6982071	-0.65701044	-0.28312778	-1.4895375	-1.9173	-0.99055	0.3046523	-0.5057877	0.43939692
740	-1.9420966	0.72445554	0.9212879	0.7047373	-0.63334715	-0.31864327	-1.3925999	-1.016125	-1.1831875	0.18711284	-0.2645122	0.25748116
741	-1.9872233	0.694351	0.94418496	0.71576625	-0.6085702	-0.34152296	-1.076625	-0.6612375	-1.211925	-0.055108763	0.032423418	0.3859725
742	-2.0110548	0.662254	0.9591149	0.72552955	-0.5859562	-0.35997212	-0.7093625	-0.6351125	-1.1193875	-0.22166103	0.17392258	0.44763264
743	-2.0277944	0.63284296	0.96666664	0.73188454	-0.56767917	-0.3760356	-0.320925	-0.7899375	-0.9554875	-0.36694568	0.16686879	0.4165096
744	-2.042102	0.60884446	0.9670792	0.7357737	-0.5542049	-0.38834444	0.0089375	-0.7250375	-0.803275	-0.53221095	0.10385318	0.4127022
745	-2.0615432	0.57961684	0.94990027	0.7379173	-0.5448495	-0.39741004	0.5655375	-0.4613125	-0.199925	-0.7037736	0.1095743	0.50433666
746	-2.0645585	0.57589275	0.937057	0.73285306	-0.5531066	-0.3953695	1.034825	-0.54395	0.3014	-0.71898454	0.12833598	0.50688326
747	-2.065488	0.5824438	0.9210288	0.720527	-0.574152	-0.38795337	1.6275874	-0.5743375	0.915475	-0.69025177	0.17425899	0.4074182
748	-2.0654564	0.6038155	0.9000707	0.70427	-0.6071608	-0.3669838	2.327875	0.061049998	1.353825	-0.51905596	0.31939322	0.34332937
749	-2.0570536	0.6412285	0.87163025	0.6894952	-0.64559835	-0.32728672	2.5524125	0.694375	1.5965124	-0.11406708	0.30289194	0.17458029
750	-2.0243647	0.68925864	0.83215463	0.6708599	-0.6778203	-0.29970586	1.8106	-0.712525	1.0399125	0.4780698	-0.19445798	-0.55105865
751	-1.9931768	0.7365726	0.7908963	0.660743	-0.68116474	-0.31424597	-0.3997125	-1.490225	-0.38073748	1.1544405	-1.0766335	-1.5629252
752	-2.02211	0.73558515	0.7790775	0.6975794	-0.65280586	-0.29418474	-0.1538625	2.8538125	-0.5798375	-0.23427665	0.22905968	-0.059026264
753	-1.9847633	0.71449846	0.77855337	0.71138203	-0.64856493	-0.2694746	0.0270875	0.799975	-0.1882375	-0.35541874	0.53021634	-0.18454684
754	-1.9384973	0.70709246	0.77815497	0.7015894	-0.65610385	-0.27679834	0.2696375	0.271425	0.4195125	0.35671335	-0.7117861	0.40646195
755	-1.948536	0.7134334	0.7822088	0.7027807	-0.66162175	-0.2601412	-0.0496375	0.824175	0.0407	0.39874837	-0.685473	0.54332167
756	-1.9293603	0.7231257	0.7751743	0.7087624	-0.6491392	-0.27493912	-1.4075875	0.2809125	-0.3966875	0.21703269	-0.6862278	-0.38999972
757	-1.9425857	0.73561704	0.8098425	0.68073744	-0.6925311	-0.23730707	0.8581375	0.9873875	1.3358124	-0.99388725	0.112210035	0.75025815
758	-1.9131451	0.7574949	0.79723686	0.65910393	-0.7223943	-0.20747536	0.7591375	-0.0583	1.780625	-0.23942503	0.038097635	0.9696619
759	-1.8766418	0.79788226	0.77346075	0.6347436	-0.7472238	-0.19512568	1.3882	-0.346225	1.3102375	0.37615854	-0.33962634	0.92192996
760	-1.8685145	0.8440034	0.75311816	0.63291603	-0.76849234	-0.09030064	1.4232625	1.7505125	0.08965	0.5081696	0.0043792217	-0.59807855
761	-1.7299181	0.87533563	0.6502029	0.6299846	-0.77221555	-0.07823185	0.8922375	0.249425	0.18645	-0.10073382	0.07649688	-0.31840426
762	-1.6618655	0.89342374	0.5919621	0.61475635	-0.78799266	-0.021428417	1.296625	0.2787125	0.4312	-0.30639246	-0.03199203	0.21306449
763	-1.6154758	0.90554225	0.54658055	0.60728335	-0.79404473	0.0041526677	1.3615249	0.4085125	0.4653	-0.23327723	0.14511505	0.22041921
764	-1.525333	0.9240181	0.45572233	0.59242964	-0.80248046	0.066097744	1.24025	0.769725	0.4184125	-0.018010687	0.16853549	-0.102596216
765	-1.4724131	0.9304711	0.41230914	0.5886253	-0.8031319	0.08841212	0.97955	0.8952625	0.323675	0.080289066	0.029737381	-0.11593505
766	-1.4333335	0.93210036	0.38053256	0.58579236	-0.8027629	0.108333886	0.936925	0.8074	0.355575	0.07556848	0.038129862	-0.107829295
767	-1.3989058	0.93146217	0.3572233	0.57688993	-0.8058364	0.13093053	1.098625	0.563475	0.5600375	-0.036629986	0.07667736	-0.12409566
768	-1.3588686	0.93601966	0.32383433	0.5653128	-0.80941445	0.15680261	1.3338875	0.7132125	0.6941	-0.0010925938	0.0880077	-0.14660384
769	-1.3142351	0.9420365	0.28209054	0.5571399	-0.8104962	0.1789082	1.1572	0.8210125	0.726	0.1987164	0.104272954	-0.2708501
770	-1.2736728	0.9437663	0.24712282	0.5501099	-0.8121808	0.19250624	0.5559125	0.4148375	0.5589375	0.28975248	0.14448968	-0.32328606
771	-1.2226282	0.9508929	0.20611978	0.53770185	-0.81701666	0.2065864	-0.1475375	0.758175	0.2800875	0.18442349	-0.13385494	-0.28732035
772	-1.2078497	0.9551645	0.20167643	0.53216803	-0.8207311	0.20619114	-0.4167625	0.5278625	0.258775	0.39209798	-0.015155741	-0.22779664
773	-1.2040055	0.9663944	0.22212659	0.5319276	-0.8244082	0.19162916	-0.49335	-0.551375	-0.1370875	0.6072161	-0.07467444	-0.36777592
774	-1.2188586	0.9694846	0.23657586	0.5420354	-0.82245976	0.17051284	-0.7062	-1.2830125	-0.46695	0.5973071	-0.28293777	-0.45828044
775	-1.2539977	0.96738946	0.25857887	0.55845785	-0.8181214	0.13460895	-1.236125	-1.8838875	-0.76285	0.47865224	-0.19033423	-0.25785053
776	-1.3152425	0.9608414	0.29550076	0.5778736	-0.8115897	0.081863984	-1.9875625	-2.2628374	-0.86817497	0.3063313	-0.14518398	-0.13354595
777	-1.4043797	0.9501247	0.3535369	0.5968892	-0.8017099	0.017378055	-2.5686374	-2.1748376	-1.18855	0.15112306	-0.24121062	0.053371176
778	-1.5133717	0.9359939	0.43274468	0.617587	-0.78451043	-0.04946384	-2.8857124	-1.7320875	-1.4141876	-0.026562503	-0.4029513	0.31287363
779	-1.624494	0.9103505	0.51995754	0.6373358	-0.76241714	-0.108813666	-3.5220625	-0.0279125	-1.3800875	-0.20716761	-0.6486991	0.21034274
780	-1.7884713	0.83545333	0.71662533	0.68233603	-0.70242155	-0.2008453	-3.3273625	-0.0771375	-1.246025	-0.059599053	-0.77750206	0.017053246
781	-1.8426049	0.78965265	0.814016	0.68856734	-0.68009377	-0.2503301	-1.612875	-2.0262	-0.7979125	0.066983126	-0.59065545	0.55716497
782	-1.9036615	0.75458735	0.8752136	0.6907073	-0.6619469	-0.28994232	-1.3341625	-1.2819124	-0.8394375	0.20276365	-0.3673039	0.36466712
783	-1.9579313	0.7300625	0.90229625	0.70152235	-0.639941	-0.31250405	-1.239425	-0.74387497	-1.12035	0.11702502	-0.025089556	0.26988935
784	-1.9834393	0.702251	0.91881496	0.71361494	-0.6161815	-0.3322522	-0.8072625	-0.670725	-1.2364	-0.024929881	0.20700715	0.43164057
785	-2.0024889	0.6713729	0.9301818	0.7225369	-0.595102	-0.35087228	-0.4774	-0.8779375	-1.12365	-0.21061032	0.22874118	0.39796707
786	-2.018834	0.6436514	0.93237	0.72844946	-0.5784564	-0.36615098	-0.1475375	-0.799425	-0.95865	-0.44231796	0.13636161	0.35381153
787	-2.0337596	0.6215967	0.92807084	0.7329469	-0.5665512	-0.37566677	0.167475	-0.64762497	-0.76175	-0.66169304	0.08876831	0.41348025
788	-2.0430446	0.60545695	0.9185336	0.7345969	-0.5612618	-0.3803544	0.407	-0.538725	-0.385	-0.7689547	0.12701099	0.49095073
789	-2.047841	0.59680694	0.9053595	0.73182726	-0.5641763	-0.38138032	0.658075	-0.4937625	0.08965	-0.7510933	0.18038431	0.5187962
790	-2.0507383	0.59763336	0.89201385	0.7230114	-0.5770274	-0.3789606	1.066725	-0.603625	0.5962	-0.6615435	0.20771545	0.47559667
791	-2.0537832	0.6360994	0.85859066	0.6914211	-0.63485104	-0.34382832	2.2906125	0.228525	1.4592875	-0.3742957	0.31263393	0.24138187
792	-2.0392678	0.6762934	0.82920164	0.67415977	-0.6694669	-0.3108703	2.2075624	0.16775	1.4442999	0.08313381	0.029604489	-0.16783
793	-2.0101244	0.7224582	0.79317224	0.6604925	-0.68853056	-0.2983166	0.6400625	-0.9449	0.2556125	0.8568317	-0.61197406	-1.0783348
794	-1.9927695	0.7572075	0.7608299	0.65997225	-0.68156165	-0.31500366	-0.6307125	-0.2833875	-0.6095375	0.95888096	-1.0893863	-1.3809139
795	-2.013457	0.754244	0.7601573	0.6792248	-0.6667061	-0.30573496	-0.39655	2.195325	-0.8160625	0.15614215	-0.27713183	-0.33921915
796	-2.0048733	0.7345483	0.7668698	0.70030046	-0.65925956	-0.2725318	-0.16885	2.249775	-0.23925	-0.32996407	0.40248585	-0.22563332
797	-1.9327383	0.71820503	0.77103025	0.69705385	-0.65922135	-0.28082058	-0.5891875	-0.506275	0.243925	0.44228867	-0.83538103	-0.16076966
798	-1.948628	0.7199564	0.77956504	0.6995075	-0.65567327	-0.28301793	-0.6711375	0.8083625	-0.247775	0.6083365	-0.70834816	0.41043386
799	-1.9526772	0.70440495	0.80975246	0.7074405	-0.6452069	-0.28732035	-0.010175	0.162525	0.34925	-1.0469971	0.059778802	0.33002675
800	-1.9352082	0.7183006	0.81728685	0.6805834	-0.69848454	-0.21964139	0.6560125	1.4553	2.2638	-0.3632593	-0.12006283	1.0821338
801	-1.8900762	0.76170653	0.80885315	0.65397227	-0.7295076	-0.19863525	1.181675	-0.0279125	1.69125	0.36478916	-0.5659052	1.0320756
802	-1.8437732	0.8401509	0.7692676	0.64473325	-0.75628	-0.10806099	1.575475	2.368025	0.2365	0.5453738	0.020194417	-0.5522907
803	-1.757708	0.855384	0.70762014	0.64285105	-0.759224	-0.09817596	0.8017625	0.304975	0.2619375	-0.04671959	0.16330656	-0.51038677
804	-1.728535	0.8605463	0.6949079	0.63822126	-0.76583886	-0.07403991	1.182775	0.5938625	0.163075	-0.19193687	-0.047310993	0.18240383
805	-1.6964252	0.871182	0.6619753	0.62784755	-0.7771387	-0.034351237	1.3083125	0.5707625	0.309925	-0.28706774	-0.09094995	0.29948884
806	-1.6365285	0.8885518	0.60821515	0.6208675	-0.7834227	-0.009470267	1.3349875	0.0704	0.4525125	-0.30527115	0.074967064	0.27899626
807	-1.595017	0.8981615	0.5642525	0.61304396	-0.7894393	0.016721556	1.4573625	0.4357375	0.535425	-0.14974125	0.273843	0.15708578
808	-1.5554218	0.90779054	0.5183598	0.6067791	-0.79309773	0.046176333	1.2562	0.790625	0.357775	0.042150557	0.2286788	-0.06931089
809	-1.5074074	0.9149661	0.47288013	0.6043768	-0.7931198	0.07075986	1.1199375	0.7016625	0.28215	0.136296	0.04755403	-0.12049993
810	-1.4655043	0.9155751	0.43800652	0.6045618	-0.7913436	0.08716323	1.083775	0.68488747	0.3014	0.058542185	0.044355817	-0.111016445
811	-1.3966532	0.9164044	0.3789082	0.5857157	-0.7977298	0.14100109	1.3402125	0.64515	0.6589	-0.10987475	0.03239338	-0.028661642
812	-1.3477272	0.9222986	0.33535472	0.57498527	-0.80138874	0.16274257	1.27215	0.899525	0.7302625	0.03704835	0.014844363	-0.133186
813	-1.309327	0.9282427	0.29866955	0.5634769	-0.8055904	0.18120529	0.65381247	0.802175	0.7121125	0.1840307	0.0629757	-0.42085359
814	-1.269708	0.9347313	0.2682188	0.55408967	-0.81017005	0.18954304	0.09295	0.5781875	0.487575	0.29055864	0.040246513	-0.2963779
815	-1.2461151	0.94276375	0.25356606	0.5476633	-0.8127602	0.19698447	-0.1038125	0.9392625	0.179025	0.3744621	-0.07734687	-0.18433921
816	-1.2303001	0.94834685	0.25081176	0.5439042	-0.814643	0.1996054	-0.44233748	0.6744375	0.094875	0.39646277	-0.006152074	-0.3104158
817	-1.2200875	0.95139754	0.2596793	0.5440541	-0.81595486	0.1937531	-0.4976125	0.1332375	-0.0158125	0.4995697	0.077009924	-0.24248399
818	-1.2263155	0.95410484	0.27770862	0.5471448	-0.8166726	0.18164717	-0.69245	-0.30635	-0.120037496	0.50504184	-0.033893157	-0.3219071
819	-1.2783805	0.95614356	0.32725435	0.5541029	-0.8164468	0.16031869	-0.8892125	-0.8652875	-0.352	0.5157289	-0.21647376	-0.42586914
820	-1.2783805	0.95614356	0.32725435	0.5662837	-0.8140315	0.1264621	-1.2915375	-1.6682875	-0.5446375	0.46246243	-0.17515817	-0.36396974
821	-1.418408	0.9445119	0.42266798	0.6035246	-0.79683644	0.011262145	-2.400475	-2.311925	-1.197075	0.24092491	-0.110304244	0.099334195
822	-1.6316032	0.9000728	0.5767229	0.6505763	-0.7500492	-0.11616178	-3.1304624	-0.9167125	-1.7375875	-0.053221587	-0.6539264	0.2530578
823	-1.7270283	0.8596508	0.6566297	0.67409766	-0.7186962	-0.16848023	-3.8242874	0.53735	-1.522675	-0.22077963	-1.0498054	-0.08921089
824	-1.8010054	0.8141304	0.7468581	0.6948742	-0.6862137	-0.21348849	-3.66795	0.358325	-1.181125	-0.17632684	-1.0339698	-0.14288765
825	-1.9106778	0.72898734	0.9167062	0.7001726	-0.64474475	-0.30558208	-1.238325	-1.7980875	-0.6829625	0.1257143	-0.45525524	0.57928234
826	-2.0062032	0.6820591	0.96815073	0.7057914	-0.624438	-0.33354616	-1.27765	-0.668525	-1.0522875	0.15842882	-0.10277916	0.23721588
827	-2.0062032	0.6820591	0.96815073	0.7212825	-0.5970904	-0.35007384	-1.0201125	-0.4497625	-1.41845	0.068931594	0.15285493	0.37198517
828	-2.0313582	0.614696	0.98312163	0.74067473	-0.5500101	-0.38497654	-0.242275	-0.928125	-1.0544875	-0.40601113	0.1674413	0.41107747
829	-2.0464947	0.5877253	0.9797003	0.7439772	-0.5361033	-0.39800504	0.1398375	-0.8443875	-0.8713375	-0.59046036	0.114803575	0.40361667
830	-2.0672357	0.55885494	0.95582706	0.7428664	-0.5313109	-0.40641806	0.7624375	-0.551375	-0.0573375	-0.7677441	0.15852807	0.51528656
831	-2.0709574	0.5586456	0.93884355	0.735763	-0.5428908	-0.40402898	1.0954624	-0.5702125	0.4450875	-0.7062982	0.16602536	0.505558
832	-2.0726533	0.5693622	0.9217094	0.7222391	-0.5659925	-0.3966619	1.657425	-0.5429875	1.00155	-0.63049597	0.22765914	0.41225824
833	-2.0737646	0.59333014	0.9020034	0.7047753	-0.60138357	-0.37542835	2.4332	-0.094875	1.453925	-0.4448364	0.30627656	0.3211011
834	-2.0376477	0.6832353	0.8324423	0.6880623	-0.64111835	-0.33890197	2.686475	0.3760625	1.5305125	-0.003551586	0.11309084	0.020354554
835	-2.0376477	0.6832353	0.8324423	0.6732388	-0.6692022	-0.31342515	1.4658875	-0.5314375	0.6375875	0.6297123	-0.47381002	-0.83295095
836	-2.023133	0.7335445	0.77966934	0.6675068	-0.6666432	-0.33066523	-0.616825	-1.2557875	-0.508475	1.0927379	-1.2876841	-1.5994112
837	-1.9887125	0.692582	0.78047836	0.70877486	-0.63587683	-0.30432978	-0.16885	2.3418999	-0.63621247	-0.3953192	0.3876658	0.00922274
838	-1.9579258	0.68352705	0.78098387	0.7116241	-0.6339576	-0.30167258	-0.65945	-0.43821248	0.5504125	0.0747215	-0.69092	-0.19262405
839	-1.9663534	0.6855681	0.79274845	0.7060011	-0.63784873	-0.30664125	-0.3081375	0.531025	0.309925	0.51346374	-1.0166925	0.5163201
840	-1.9781824	0.68584484	0.82702076	0.7184657	-0.6246982	-0.3047566	-0.4019125	0.531025	0.0490875	-0.59981126	-0.0073048435	0.5110716
841	-1.9558334	0.68578416	0.84525484	0.71589684	-0.6379385	-0.28256622	0.6389625	1.6218125	1.076075	-1.1772578	0.09186814	0.5627956
842	-1.8625929	0.78334635	0.8221239	0.67217124	-0.71277946	-0.19861655	0.839025	0.597025	1.8913125	0.11243124	-0.43706766	0.92441165
843	-1.8387135	0.81942815	0.8004184	0.6554386	-0.7351153	-0.17124012	1.754225	0.854425	0.897325	0.66780305	-0.4247165	0.6309802
844	-1.7740513	0.8381109	0.7540307	0.6549873	-0.74491465	-0.124142736	1.3316875	1.738	0.25135	0.7461289	-0.03551348	-0.38850254
845	-1.7338771	0.843837	0.7291937	0.6550143	-0.74808663	-0.10315059	0.823075	0.45045	0.18755	0.19411418	0.15409583	-0.4123387
846	-1.6494334	0.8621943	0.6533376	0.6471768	-0.7606414	-0.043639354	1.3806375	0.6336	0.375925	-0.33566302	-0.069832675	0.20591764
847	-1.6093704	0.8740815	0.6100557	0.63866615	-0.7687978	-0.01930662	1.4147375	-0.0499125	0.5845125	-0.32938477	0.056458343	0.20432192
848	-1.6093704	0.8740815	0.6100557	0.6288977	-0.7770116	0.0076064705	1.656325	0.3876125	0.653675	-0.15703228	0.23725623	0.2130816
849	-1.5711331	0.88699013	0.5613593	0.6216031	-0.7816634	0.04392405	1.574375	1.059575	0.41305	0.047097266	0.26025668	-0.06268551
850	-1.5158454	0.89608836	0.50795174	0.62549657	-0.7771963	0.0635392	1.2115124	0.8586875	0.209825	0.11272974	0.10950514	-0.20554225
851	-1.4817477	0.8900586	0.48014364	0.62496084	-0.775414	0.08645597	1.198725	0.58025	0.21945	0.049549893	0.044221323	-0.064544655
852	-1.4440272	0.8874114	0.44732246	0.61871845	-0.777171	0.11184865	1.3242625	0.4305125	0.3524125	-0.10454413	0.011834602	-0.056496967
853	-1.4028612	0.8899153	0.406986	0.60813147	-0.7817489	0.1355054	1.362625	0.3865125	0.5812125	-0.19875836	-0.038740467	-0.18576534
854	-1.3629376	0.8964339	0.36365533	0.59540284	-0.79033285	0.14207897	1.098625	0.7497875	0.7143125	-0.03882791	-0.028214516	-0.30212483
855	-1.317953	0.9163642	0.31860802	0.5765565	-0.798993	0.1688499	0.314325	0.5666375	0.555775	0.2794068	0.10714283	-0.07343706
856	-1.2921454	0.92375135	0.3017342	0.5696652	-0.80127287	0.18099818	0.2314125	0.8303625	0.2630375	0.34827062	0.010340123	-0.1109676
857	-1.2696991	0.9288879	0.28996775	0.5653613	-0.8028418	0.18742715	-0.1401125	0.5017375	0.1555125	0.34503624	-0.07605732	-0.3438033
858	-1.2529944	0.93146795	0.2871652	0.5632698	-0.80485016	0.18509658	-0.2816	0.1155	0.1183875	0.37668428	-0.11644956	-0.23820055
859	-1.2526778	0.9348024	0.29392406	0.5622405	-0.8073608	0.1771196	-0.616825	-0.0394625	0.0917125	0.34031308	-0.18693581	-0.32716548
860	-1.261936	0.93867874	0.30638477	0.56269044	-0.81086797	0.15871367	-0.9637375	-0.48014998	0.0066	0.36085698	-0.2701718	-0.41008982
861	-1.2874079	0.9446573	0.3322371	0.5679128	-0.8122167	0.13075277	-1.1925375	-1.2181125	-0.20515	0.5446254	-0.30296686	-0.39119622
862	-1.4041889	0.94668394	0.41898763	0.59571886	-0.80256325	0.018116781	-2.4930124	-2.506625	-0.8798625	0.3740059	0.07534615	-0.004462348
863	-1.5109769	0.9357589	0.49489602	0.6138712	-0.7871636	-0.053412013	-2.793175	-2.4501126	-1.4034625	0.12660284	-0.123952575	0.269727
864	-1.6282301	0.91452	0.5798328	0.6367594	-0.7610244	-0.121228166	-2.91445	-1.5928	-1.7919	0.028271144	-0.42521405	0.4822832
865	-1.7359658	0.87655014	0.66221166	0.6596511	-0.7305499	-0.17457071	-3.4571624	0.27665	-1.5291375	-0.16454405	-0.76986295	0.24195604
866	-1.8149776	0.83106375	0.7425354	0.6829567	-0.69651204	-0.21853772	-3.8988125	0.72985	-1.3470875	-0.06236033	-0.9757663	-0.18910754
867	-1.8679569	0.7829642	0.8342392	0.6962046	-0.6660796	-0.2663724	-2.1247876	-1.5489374	-1.116225	0.1926792	-0.6332018	0.383299
868	-1.9213592	0.7380277	0.9122518	0.6940186	-0.64570874	-0.3173566	-0.893475	-2.832225	-1.02355	0.39140952	-0.48364905	0.6290844
869	-1.9839073	0.7085553	0.93643814	0.69345194	-0.6242552	-0.35881335	-1.0137875	-1.7404749	-1.1342375	0.23549299	-0.2572891	0.21580113
870	-2.0640807	0.65261424	0.94909674	0.71106166	-0.5755879	-0.40299803	-0.516725	-1.0025125	-1.4609375	-0.20494543	0.09566437	0.4891295
871	-2.0824358	0.62100714	0.945926	0.71965486	-0.5525302	-0.4196725	-0.33165	-0.7365875	-1.327975	-0.43647444	0.11113883	0.39245537
872	-2.0964196	0.592004	0.9378127	0.72940725	-0.5333533	-0.42757067	-0.1560625	-0.1640375	-1.0938125	-0.63735837	0.09104444	0.39128625
873	-2.0974553	0.55114794	0.9165472	0.7385556	-0.5209022	-0.4272154	0.724075	-0.5137	-0.197725	-0.68636906	0.09929669	0.6134539
874	-2.094965	0.5469425	0.90176	0.7320838	-0.5310632	-0.4258431	1.1433125	-0.670725	0.29067498	-0.5890716	0.13167481	0.5793599
875	-2.0970237	0.55571103	0.8832659	0.7201996	-0.5519442	-0.41950887	1.5797375	-0.539825	0.80905	-0.6118357	0.15795337	0.4450899
876	-2.0988076	0.5772087	0.86188525	0.7054695	-0.5839784	-0.4007489	2.18625	-0.010175	1.2761375	-0.580286	0.23637901	0.36344004
877	-2.092	0.6126547	0.83616394	0.6910394	-0.6236707	-0.3644399	2.524775	0.7645	1.598575	-0.27166626	0.23406824	0.14751332
878	-2.0659235	0.66045564	0.80127925	0.6757384	-0.6595356	-0.32818872	1.7787	0.304975	1.39535	0.22976619	-0.1109078	-0.5621324
879	-2.0289123	0.71009	0.76633465	0.65958375	-0.67419857	-0.33124396	-0.1401125	-1.6985375	0.2992	1.0056609	-0.9358932	-1.4377621
880	-2.0550275	0.73111165	0.7574505	0.6934907	-0.6441518	-0.3216466	-0.1071125	1.873025	-1.164075	0.224965	0.05535977	0.16965884
881	-2.0163271	0.7055207	0.7453977	0.7130529	-0.6298076	-0.30694532	-0.176275	0.68694997	-0.71073747	-0.22478074	0.7085997	-0.2107917
882	-1.9827998	0.6680183	0.7416947	0.72020173	-0.62381196	-0.30246595	0.80808747	0.7508875	0.25135	0.21190833	-0.4393838	0.79777175
883	-1.9458915	0.6848221	0.7147993	0.71203035	-0.6231891	-0.32243693	-1.9523625	-1.2222375	-0.2179375	0.2466853	-1.3138139	-1.0610492
884	-1.9832138	0.6778854	0.7362071	0.7179068	-0.6235302	-0.30844307	0.78155	1.9661125	0.1343375	-0.9226927	-0.7788092	0.35359597
885	-1.9892586	0.67114955	0.7525183	0.71119124	-0.6540792	-0.25632972	0.7112875	2.2268126	1.4113	-1.2614511	0.14337584	0.8014826
886	-1.928853	0.70518196	0.7303055	0.69614077	-0.68273056	-0.22041838	0.1216875	1.4353625	1.8594124	-0.4847187	0.114122	0.8251126
887	-1.8827193	0.7425394	0.7278617	0.6735995	-0.70781845	-0.21112555	0.5421625	-0.5157625	1.485825	0.13129349	-0.2950409	0.937624
888	-1.8724828	0.77862036	0.7358387	0.6586515	-0.72606486	-0.19576937	1.786125	0.6912125	0.6802125	0.6066849	-0.3812746	0.67619747
889	-1.8713293	0.8068764	0.7177879	0.6617131	-0.73757875	-0.1320255	2.0362375	2.746975	0.259875	0.79160494	-0.12491359	-0.18724057
890	-1.7923158	0.8262681	0.662532	0.66091835	-0.74351454	-0.098438665	0.8837125	0.3458125	0.2971375	0.22532018	0.13444726	-0.64957356
891	-1.7252285	0.83637375	0.6209075	0.65587103	-0.749708	-0.084193856	0.9145125	0.5655375	0.130075	-0.11316458	-0.041010667	-0.04852786
892	-1.7065983	0.8465943	0.59863454	0.6486021	-0.759208	-0.04728043	1.1199375	0.55715	0.274725	-0.2509416	-0.06719865	0.35044554
893	-1.6529971	0.86052835	0.5551071	0.6429491	-0.76513445	-0.022421448	1.2903	0.3311	0.390775	-0.28901944	0.12190815	0.37440923
894	-1.6151426	0.8692917	0.5167959	0.6362666	-0.7709956	0.0069101686	1.330725	0.7926875	0.4269375	-0.22953875	0.20932898	0.15302868
895	-1.5722536	0.87856495	0.47432134	0.63104063	-0.7743703	0.03815081	1.17205	1.03345	0.2897125	-0.07518434	0.17233667	-0.026942857
896	-1.5231446	0.8848719	0.4340317	0.625967	-0.7761649	0.07106738	1.3083125	1.027125	0.31845	-0.012710164	0.13579796	0.012418867
897	-1.4714166	0.88796645	0.39473078	0.6194633	-0.77729106	0.1067751	1.5200624	0.97583747	0.373725	-0.009677364	0.06791794	0.015044467
898	-1.4149554	0.8900515	0.34813356	0.60914	-0.78018945	0.13989349	1.5637875	0.855525	0.5504125	-0.086204186	0.012192497	-0.16863964
899	-1.359932	0.89430124	0.30022	0.59627336	-0.78799886	0.15110737	1.43385	0.5979875	0.7249	-0.050600585	-0.031985857	-0.35997587
900	-1.2973261	0.9143342	0.2368917	0.572545	-0.79977083	0.17853837	0.0897875	0.5812125	0.60995	0.3021798	0.04350174	-0.2778197
901	-1.273577	0.9244643	0.22080375	0.56460017	-0.80348474	0.18696597	-0.0209	0.9392625	0.2695	0.3657821	-0.07388531	-0.15282224
902	-1.2422577	0.9359407	0.2213529	0.5599475	-0.80701524	0.1857483	-0.6062375	0.1656875	-0.0488125	0.490817	0.034645207	-0.29450977
903	-1.2476493	0.9387019	0.23963617	0.56302476	-0.8077577	0.17276548	-0.812625	-0.2080375	-0.120037496	0.44503337	-0.0691078	-0.26940155
904	-1.2668076	0.9400531	0.2637052	0.5686243	-0.8085332	0.14919089	-1.0638375	-0.875875	-0.264825	0.44574878	-0.2499836	-0.40668324
905	-1.3026131	0.94189554	0.29656413	0.5789604	-0.8070084	0.113399565	-1.4554375	-1.60435	-0.4829	0.4695564	-0.30063683	-0.42115185
906	-1.3592178	0.9403024	0.33806658	0.5935382	-0.8023659	0.05690431	-2.2705374	-2.2209	-0.7437375	0.36130884	-0.14850566	-0.24578811
907	-1.4485792	0.93402636	0.40157616	0.60968	-0.792128	-0.011855069	-2.75055	-2.2638	-1.0406	0.16299586	-0.15852949	0.057527848
