index	attitude.roll	attitude.pitch	attitude.yaw	gravity.x	gravity.y	gravity.z	rotationRate.x	rotationRate.y	rotationRate.z	userAcceleration.x	userAcceleration.y	userAcceleration.z
0	-1.1867361	0.15056805	0.43481624	0.7834872	-0.3921203	0.48135903	0.8316	-0.6842	1.5752	0.33047307	0.026676875	0.039329052
1	-1.1945924	0.17486145	0.4080525	0.77716	-0.41194218	0.47501895	0.5495875	-0.6989125	1.8189875	0.06412439	-0.047996648	-0.19693024
2	-1.2046382	0.20006828	0.38130495	0.7675066	-0.43821713	0.46713638	0.5314375	-0.8223875	2.0233126	-0.046099894	-0.17279208	-0.1319682
3	-1.2139783	0.23318553	0.3587699	0.7571593	-0.46191767	0.46114963	0.4761625	-0.582725	1.7455624	0.2867704	-0.02309763	-0.11202119
4	-1.2234472	0.2662302	0.33337462	0.74547714	-0.48148522	0.4601663	-0.0878625	0.17407499	1.2612875	0.53912526	0.23642404	-0.37351495
5	-1.2260278	0.2929398	0.31628466	0.72923005	-0.50273883	0.46345887	-0.763675	0.75405	0.996325	0.40521947	0.22812107	-0.32726622
6	-1.2166507	0.31739026	0.31596732	0.71692306	-0.5185762	0.4652066	-0.2102375	0.163625	0.71115	0.3167161	0.079432465	0.08453345
7	-1.2063508	0.33793506	0.32165292	0.71114635	-0.5291199	0.46219072	-0.0325875	-0.257125	0.7888375	0.19191173	0.08967037	-0.09287878
8	-1.2065414	0.35192865	0.3173219	0.7038268	-0.5426583	0.45767552	-0.2943875	-0.107525	0.9175375	0.24265644	0.21605279	-0.25411284
9	-1.2090093	0.3684859	0.31319317	0.6941472	-0.55804515	0.4539409	-0.4136	0.111237496	0.8993875	0.37129623	0.33836624	-0.14802344
10	-1.2097023	0.3874242	0.31266668	0.68716353	-0.5726361	0.4463308	-0.33055	-0.39214998	0.7792125	0.35431963	0.30749848	-0.05081091
11	-1.2121733	0.4059683	0.31533575	0.6839154	-0.58387846	0.43664938	0.05995	-0.7753625	0.8611625	0.26623747	0.23117206	-0.0038206272
12	-1.2221093	0.42174646	0.3123739	0.68177754	-0.59472674	0.42520186	0.1398375	-0.9574125	1.028225	0.22586769	0.23275428	-0.1688257
13	-1.2356422	0.43802208	0.30297738	0.67960775	-0.6054077	0.41343912	0.085525	-0.917675	0.799425	0.37013236	0.2912334	-0.24207827
14	-1.2670549	0.46758118	0.28887948	0.682535	-0.61984015	0.38634345	-0.5434	-0.4560875	0.1832875	0.31665462	0.28906035	-0.30091533
15	-1.2835904	0.4756706	0.29337493	0.6854579	-0.62523425	0.37221864	-0.8839875	-0.2655125	-0.1434125	0.4016981	0.24613638	-0.15101068
16	-1.297672	0.4807621	0.30739868	0.6908306	-0.6293821	0.3548923	-1.24575	-0.28655	-0.2275625	0.40967402	0.06964199	-0.0045406222
17	-1.3135713	0.48137048	0.33017054	0.69278115	-0.6411212	0.3291432	-1.96625	-0.3597	0.2322375	0.40824333	-0.024826834	-0.03108509
18	-1.3350031	0.4869901	0.36334363	0.69018555	-0.661596	0.29197928	-2.4132626	-0.74181247	0.586575	0.5937136	0.04783454	-0.00899764
19	-1.3657093	0.5036997	0.40978393	0.6852218	-0.6866225	0.24153206	-2.152425	-1.8503375	1.1005499	0.52028275	0.16807508	0.09343736
20	-1.4132239	0.528202	0.45930964	0.6779094	-0.71204334	0.18097089	-2.0587876	-2.3579874	1.484725	0.2981304	-0.056259394	-0.04202594
21	-1.4803222	0.5561367	0.50391275	0.66407365	-0.7366249	0.12532733	-1.47345	-1.77705	1.144275	0.06906094	0.12388793	-0.17598483
22	-1.5506219	0.5895374	0.5474918	0.6688728	-0.7360668	0.10065788	-0.1071125	-0.7324625	-0.9076375	-0.07885749	0.27051637	-0.29220223
23	-1.5919518	0.5969755	0.5710043	0.68671227	-0.71972066	0.09871866	0.8199125	-0.540925	-0.95865	-0.037583806	-0.038490333	-0.24417736
24	-1.6006486	0.57736385	0.56338644	0.69309646	-0.7128887	0.10355856	1.1902	-0.71775	0.0279125	0.107622236	-0.14449662	-0.11762584
25	-1.6020912	0.5668572	0.53881633	0.6784241	-0.72508824	0.11534719	-0.059125	0.629475	1.4081374	0.26541382	-0.17572217	-0.10239612
26	-1.5917314	0.5800518	0.5196005	0.66006494	-0.74315417	0.10655208	-1.1180125	0.207625	0.9323875	0.30404824	-9.895464E-4	-0.0145031465
27	-1.5923306	0.60689867	0.5335194	0.65480226	-0.749283	0.09553047	-0.650925	-0.129525	0.0012375	0.20869927	0.06651542	0.29162547
28	-1.6012266	0.6181889	0.5583327	0.6634056	-0.7425543	0.088449836	-0.2369125	-0.281325	-0.6829625	0.046487343	0.17324238	0.06904252
29	-1.6097556	0.6113171	0.5666527	0.6728362	-0.73541087	0.0760224	-0.715825	-0.39435	-0.4904625	-0.053264312	0.2530408	-0.13963096
30	-1.6434778	0.58814085	0.5935108	0.6893341	-0.7232006	0.03341165	-0.24007499	-1.02025	-0.442475	0.18416747	0.12951557	-0.1346349
31	-1.67021	0.5783524	0.60503036	0.6956545	-0.71756965	0.02181339	0.085525	-0.5597625	-0.3328875	0.19884089	0.028380074	-0.17360237
32	-1.6890072	0.57027006	0.6063453	0.7001394	-0.713197	0.021733548	0.1483625	0.1280125	-0.278575	0.1142337	-0.09363788	-0.15150419
33	-1.6929603	0.5649265	0.6022585	0.70342505	-0.7097546	0.027552787	0.2079	0.2453	-0.2264625	0.014510723	-0.09758489	-0.03703291
34	-1.6858071	0.5616806	0.5970327	0.70325416	-0.7096796	0.033252146	0.3612125	0.0369875	0.2055625	-0.17175572	0.054220904	-0.018573245
35	-1.6707549	0.56998444	0.579008	0.6842134	-0.7263476	0.059902113	0.7431875	0.46928748	0.7877375	-0.09685865	0.23471154	-0.10618652
36	-1.6565429	0.5865902	0.5611796	0.6699257	-0.73825103	0.0741741	0.251625	0.6703125	1.044175	-0.1270052	0.16088101	-0.15073374
37	-1.6391808	0.60488117	0.548844	0.65405935	-0.75141007	0.083104946	-0.2028125	0.8063	0.9015875	-0.028065437	0.19575258	-0.22214165
38	-1.6247636	0.62579316	0.5490854	0.64308983	-0.7599951	0.090333775	-0.238975	0.887975	0.538725	0.12469306	0.40311435	-0.18258147
39	-1.612012	0.640442	0.5555298	0.63813776	-0.7631941	0.098142825	-0.3199625	0.9163	0.1970375	0.19845243	0.41732252	-0.11201133
40	-1.5967946	0.64702237	0.5620392	0.6354358	-0.7646734	0.103984945	0.052525	0.4745125	0.274725	0.2011544	0.33184466	-0.13120207
41	-1.5846804	0.64994556	0.56737846	0.63642514	-0.76340777	0.107186355	0.397375	-0.0677875	0.08635	0.2761131	0.30275026	-0.23970929
42	-1.5783197	0.6522786	0.5634276	0.64190066	-0.75894326	0.106234014	0.5368	-0.7502	-0.034925	0.28144795	0.32030416	-0.2648426
43	-1.5790607	0.64993566	0.5521065	0.6446877	-0.7574974	0.09946108	0.3058	-0.8789	0.1310375	0.27691785	0.16839948	-0.1826415
44	-1.5903099	0.64951634	0.5405856	0.64260525	-0.76010525	0.092820644	0.1079375	-0.681175	0.25025	0.46840394	-0.046010993	-0.116475075
45	-1.6020914	0.6539002	0.53519183	0.64189416	-0.76188326	0.0826014	0.2388375	-1.2516625	0.1992375	0.5116227	0.086653896	-0.16750966
46	-1.6458983	0.65992373	0.5260696	0.63223416	-0.7732815	0.04040846	0.3174875	-1.9602	1.242175	-0.16648494	0.69101846	-0.326754
47	-1.6829387	0.6742766	0.52065927	0.61079556	-0.7908414	0.028560419	0.9805125	-1.7362125	1.5422	-0.120581515	0.63874656	-0.34466133
48	-1.7146399	0.70285714	0.51223594	0.593534	-0.8037728	0.031365708	0.967725	-0.91135	0.799425	0.46620604	0.038436428	-0.12922503
49	-1.7277856	0.7328284	0.48692626	0.5882886	-0.80787015	0.024064545	-0.26345	-1.1573375	0.2044625	0.83189493	-0.31587604	-0.0815569
50	-1.7362232	0.7443682	0.47658744	0.5867174	-0.80932605	-0.008435348	-0.3465	-3.1158874	0.1970375	0.57027036	-0.13328862	0.19100416
51	-1.7781003	0.7456786	0.486308	0.57308686	-0.816921	-0.059404224	0.5803875	-4.725875	0.7898	0.34873277	-0.07685574	0.42801282
52	-1.864596	0.7548346	0.49432892	0.5666035	-0.8196322	-0.08050404	1.9138625	-4.4086623	-0.3317875	0.27243325	0.07967807	0.21108505
53	-1.9860228	0.78093725	0.4084557	0.56463385	-0.8158209	-0.12223831	0.9400875	-2.0629125	-0.066825	-0.6583189	-0.72954607	-0.16747117
54	-2.0307598	0.78127724	0.36753678	0.5500816	-0.82677096	-0.114792235	0.3026375	0.9026875	1.336775	-0.6955403	-0.81114954	-0.14901511
55	-2.040319	0.79697055	0.35565966	0.52396613	-0.84540087	-0.10036914	-0.46254998	1.7840625	1.88485	-0.42661142	0.094437525	-0.0878113
56	-2.0269911	0.85742646	0.416881	0.4487227	-0.8896625	-0.080410965	0.48894998	1.448975	2.891625	-0.09673494	0.10525886	0.1782703
57	-2.0288692	0.9005072	0.45064846	0.3864242	-0.92034525	-0.054386515	0.461175	2.0194626	3.8451874	-0.040751446	-0.054471232	0.08955471
58	-2.0170171	0.969011	0.478093	0.31130752	-0.94966483	-0.0232654	0.97845	2.3733876	4.158	0.15158239	-0.14157368	0.09451923
59	-1.9820788	1.129391	0.5432936	0.18071742	-0.98220295	0.043999363	1.43495	0.1343375	2.858625	0.45058227	-0.16958603	0.01919636
60	-1.9539616	1.1995927	0.5367969	0.14181077	-0.9867806	0.073967226	1.6190625	0.562375	1.3794	0.5185409	-0.07907573	0.10207253
61	-1.9252367	1.2546047	0.5041773	0.12921149	-0.98469234	0.11402789	1.6861625	2.7031126	0.15125	0.5438772	-0.029375015	0.12205775
62	-1.7988098	1.2791101	0.40818655	0.12697224	-0.9804007	0.14835702	1.33925	1.5222625	-0.2190375	0.26772195	-0.17678584	-0.12684324
63	-1.6455693	1.283322	0.29693294	0.13059658	-0.97548383	0.1751946	1.3211	0.584375	-0.327525	0.19773676	-0.2307394	-0.19904782
64	-1.5363479	1.2783363	0.20639785	0.13134538	-0.9709699	0.19819987	1.1242	-0.34925	0.3641	0.26212555	-0.08977935	-0.36261883
65	-1.4479443	1.2729783	0.11984028	0.11044978	-0.9729763	0.20108518	-0.0177375	-2.4836626	2.399925	0.093632795	-0.09919496	-0.5970026
66	-1.4149959	1.2894487	0.06414943	0.061048217	-0.981495	0.17960522	-1.0883125	-4.474525	3.4749	-0.14036015	-0.2408291	-0.52527803
67	-1.7656723	1.4260737	0.25922626	0.0017723049	-0.98994833	0.13898328	-1.8831999	-3.7093375	3.659975	-0.09860717	-0.015357461	-0.20698023
68	-1.7656723	1.4260737	0.25922626	-0.058072753	-0.9920392	0.10864033	-1.0850124	-2.6961	3.0938876	0.041558992	0.08703916	0.01929545
69	-2.3649805	1.4736755	0.8004561	-0.0969471	-0.9877492	0.11945625	0.968825	-2.3716	1.7604125	0.41479114	0.3158838	0.12958045
70	-2.9906662	1.4950128	1.3705932	-0.11296419	-0.9814296	0.15281464	1.73085	-0.896775	0.5971625	0.5140804	0.46216354	-0.02926724
71	2.8066337	1.5204483	1.8231862	-0.11179219	-0.97586083	0.18578339	1.3828375	-1.037025	-0.014712499	0.307098	0.3811667	-0.40443784
72	2.1265488	1.5447788	2.486557	-0.10630812	-0.9743354	0.19668755	0.5368	-1.534225	0.1491875	0.07858641	0.07933539	-0.56355304
73	1.4753156	1.5482131	3.1126423	-0.104248166	-0.9746762	0.19610155	-0.157025	-1.6148	0.3694625	0.17744388	-0.05946757	-0.5057804
74	1.4062245	1.5441271	-3.132645	-0.107264586	-0.97564274	0.18956015	-0.39545	0.2882	0.4417875	0.27373245	-0.15269063	-0.25072223
75	1.5912611	1.5383931	2.9413779	-0.11784122	-0.9739288	0.19207674	0.7431875	1.710775	0.2641375	0.16707669	-0.25042903	-0.034385607
76	1.5905262	1.5311316	2.9594944	-0.12439376	-0.97073543	0.2037554	0.88165	0.8157875	0.1588125	0.16047938	-0.074830376	-0.37481043
77	1.2387836	1.5250343	-2.9428558	-0.12429229	-0.9701754	0.20646577	0.1568875	-0.778525	0.0171875	0.07403236	-0.044197697	-0.5506095
78	1.1079375	1.519794	-2.8077514	-0.11985204	-0.9721744	0.19957411	-0.2591875	-1.2725625	-0.0594	-0.046310037	-0.035058077	-0.3220053
79	1.1739386	1.51964	-2.8935978	-0.1102738	-0.97408444	0.19574606	-0.1964875	-1.393975	-0.329725	-0.009496836	-0.05730698	-0.16771854
80	1.2281907	1.5297081	-2.9985764	-0.10430457	-0.97590363	0.1898682	-0.111375	-0.258225	0.462	0.21776022	-0.27944803	-0.27376726
81	1.3135754	1.5283154	-3.0956874	-0.11507192	-0.9765903	0.17985286	-0.75941247	1.059575	0.4184125	0.45493433	-0.3925229	-0.52307916
82	1.4699274	1.520052	3.034862	-0.12002329	-0.98212796	0.14260499	-2.2386374	1.9327	-0.3232625	0.6417358	-0.46099126	-0.6032625
83	1.9731109	1.5128183	2.5612724	-0.108115666	-0.99033535	0.08285082	-2.954875	1.4595625	-0.93953747	0.41423187	-0.40732527	-0.25268263
84	2.6757934	1.4846382	1.8944031	-0.0882345	-0.9953888	0.027075995	-2.5983374	0.17407499	-1.0300125	-0.057438284	-0.2506815	0.026853671
85	3.0150845	1.4362028	1.5716667	-0.06908313	-0.9970854	-0.019114165	-2.186525	-0.2561625	-0.9618125	-0.3121554	-0.22279231	0.106270134
86	-3.131039	1.3892038	1.4316343	-0.055072714	-0.99665076	-0.054509673	-1.60765	-0.064625	-0.5765375	-0.42535543	-0.23963365	0.18213964
87	-3.0647922	1.3504404	1.3604409	-0.048895255	-0.9950674	-0.08226058	-1.3649625	0.109175	-0.30635	-0.3130772	-0.14571239	0.14108321
88	-3.0458052	1.3217645	1.3401302	-0.04388621	-0.9930092	-0.106413364	-1.3564374	0.1436875	-0.34347498	-0.08567037	-0.023504522	0.11569471
89	-3.0406046	1.3014652	1.3365241	-0.039649114	-0.99019396	-0.13138199	-1.419275	0.3865125	-0.24035	-0.0725833	0.009567074	0.101412565
90	-3.0369403	1.2816057	1.3362025	-0.034922052	-0.98640466	-0.15844141	-1.4958625	0.660825	-0.1881	-0.03775379	-0.020827819	0.06864019
91	-3.030826	1.2598053	1.3395278	-0.02950915	-0.9808707	-0.19062856	-1.6501375	0.5550875	-0.1232	0.0049372846	-0.017906036	-0.00773537
92	-3.0222917	1.2323923	1.3438202	-0.026020251	-0.9741374	-0.22292717	-1.583175	0.2651	-0.034925	0.019292424	0.033464633	-0.0030667044
93	-3.020366	1.2020446	1.3509358	-0.02546135	-0.96763194	-0.24971478	-1.256475	0.1007875	0.02035	0.018932298	0.121959195	0.08202364
94	-3.025492	1.1737547	1.3603345	-0.024914576	-0.9623603	-0.26936853	-0.910525	0.076725	-0.004125	0.0044252784	0.19824715	0.14806883
95	-3.0297413	1.1521276	1.3669525	-0.024988549	-0.9582919	-0.28349477	-0.666875	-0.0405625	0.02255	-0.045240812	0.24891876	0.1705437
96	-3.0330377	1.1364629	1.3711963	-0.026411688	-0.9551295	-0.2938492	-0.49555	0.077825	0.1236125	-0.07919994	0.2837686	0.17825288
97	-3.0383816	1.1250944	1.3766	-0.029609192	-0.9529492	-0.30054668	-0.2836625	-0.0562375	0.2013	-0.064779185	0.2982092	0.21644881
98	-3.0454993	1.1174703	1.3854659	-0.03568265	-0.95203876	-0.30276385	-0.0422125	-0.06985	0.3546125	-0.07460788	0.3172834	0.24496567
99	-3.0583167	1.1144137	1.3975217	-0.04428504	-0.9526545	-0.2996762	0.2770625	0.17613749	0.5429875	-0.10331435	0.35306734	0.22333063
100	-3.075273	1.1168352	1.4167761	-0.054409962	-0.95534694	-0.2892567	0.7198125	0.3216125	0.651475	-0.050987598	0.36065277	0.16162673
101	-3.0938663	1.1265574	1.4427708	-0.06536742	-0.960339	-0.26980206	1.1933625	0.314325	0.6791125	0.03030626	0.35391697	0.044832632
102	-3.1143413	1.1454831	1.472579	-0.07646851	-0.9666352	-0.24307701	1.5105749	0.185625	0.6259	0.11235536	0.35879117	-0.10860493
103	-3.138041	1.1723436	1.5044166	-0.085401356	-0.9732466	-0.2116938	1.706375	-0.0383625	0.4184125	0.2179243	0.29628938	-0.18402487
104	3.1200526	1.2040571	1.5338058	-0.07385827	-0.9794262	-0.18597412	1.7851624	-0.063525	-0.0295625	0.33624357	0.08910506	-0.19801669
105	3.1373248	1.2362114	1.5179645	-0.061154127	-0.98578024	-0.15431884	1.461625	0.55935	-0.919325	0.49887586	-0.22726262	-0.45230195
106	-3.1202211	1.2706399	1.4933617	-0.02687618	-0.98949665	-0.13961057	0.35901248	1.3569875	-1.8781124	0.48212078	-0.5460844	-0.9619185
107	-3.007469	1.2900711	1.395486	0.017787935	-0.98937	-0.14194342	-0.2497	0.42955	-2.1665876	0.28690624	-0.62530893	-1.0591729
108	-2.8470187	1.2821399	1.2516587	0.0575976	-0.987218	-0.14628719	-0.1368125	0.1018875	-1.801525	0.12691312	-0.3401061	-0.59143454
109	-2.7222288	1.2629719	1.1239172	0.08484418	-0.9842393	-0.15294346	0.02915	1.287825	-0.949025	-0.030914515	0.077098586	-0.23054278
110	-2.6442895	1.246888	1.0516196	0.10013804	-0.9830663	-0.15123029	-0.077275	0.99055	-0.3977875	-0.0015600558	0.46013054	-0.19291346
111	-2.5806472	1.239629	1.0135715	0.10490613	-0.98248106	-0.15179813	0.1153625	-0.722975	-0.1700875	0.10743331	0.26280215	-0.15084712
112	-2.560986	1.2355311	0.9993016	0.107659936	-0.98325926	-0.14466482	0.740025	-1.2076625	-0.425425	0.111804895	-0.38880494	-0.1259774
113	-2.5587769	1.238669	0.9757095	0.11882379	-0.98421735	-0.12850729	0.8284375	-0.8003875	-0.8586875	0.055488132	-0.710584	0.014134186
114	-2.521499	1.2471455	0.91289186	0.13755323	-0.9822003	-0.12521596	-0.2762375	0.456775	-0.9543875	-0.21900582	-0.75388527	0.18648508
115	-2.4689238	1.2432436	0.8485858	0.15368396	-0.9790209	-0.13121063	-0.4965125	1.9870125	-0.4137375	-0.5039439	-0.582447	0.050981265
116	-2.4300683	1.2264285	0.8313628	0.15944535	-0.9788438	-0.125536	0.2963125	1.8321875	-0.0072875	-0.5363108	0.24570923	-0.021145966
117	-2.3925633	1.2217678	0.8331288	0.15837856	-0.98128873	-0.10633078	0.8284375	1.5651625	0.437525	-0.45562625	0.7686435	0.1900158
118	-2.3409326	1.2319502	0.815163	0.14598174	-0.9846676	-0.091849364	0.2303125	0.984225	0.9026875	-0.30928448	0.6475575	0.15973927
119	-2.3094022	1.2507937	0.81059694	0.12960379	-0.9865501	-0.09612155	-0.6188875	0.5687	0.817575	-0.06833468	0.26901188	0.18174846
120	-2.3364801	1.2630459	0.8558846	0.119509704	-0.9868781	-0.105385125	-0.4976125	0.44935	0.42061248	0.052554525	-0.17592004	0.38347384
121	-2.380046	1.2652632	0.9131922	0.11721117	-0.9879379	-0.097760305	0.8529125	0.25575	-0.001925	0.15424141	-0.48779604	0.5037695
122	-2.3839793	1.2691387	0.9251668	0.12367398	-0.98972464	-0.06683826	1.7468	0.2160125	-0.4307875	0.25889483	-0.38672796	0.36928475
123	-2.1620057	1.300798	0.7048224	0.14856455	-0.9883183	0.021737123	2.3672	1.01365	-0.361625	0.17559448	0.2530431	0.0065962104
124	-1.9876978	1.3120472	0.535498	0.14909708	-0.98586696	0.071789056	2.1916125	1.65	0.1087625	0.1536552	0.28698313	-0.19013768
125	-1.7823534	1.3228774	0.35028222	0.1448296	-0.98355824	0.10466617	1.3646874	1.53065	0.32587498	0.22041507	0.15767133	-0.37458974
126	-1.6144485	1.3290219	0.21057132	0.14345427	-0.9825231	0.11570006	0.6219125	0.6576625	0.2215125	0.20975675	0.04143739	-0.32996613
127	-1.5297081	1.3314489	0.1475782	0.1443014	-0.9819562	0.11939882	0.4676375	-0.2781625	0.18645	0.11002581	0.025992922	-0.15375662
128	-1.443572	1.3346932	0.05556693	0.15422475	-0.9780102	0.13794167	0.8028625	-0.15455	0.047025	0.12823701	0.019095846	-0.06496003
129	-1.3874482	1.3309436	-0.009824918	0.15473187	-0.9756228	0.15341179	0.8943	0.2861375	0.1375	0.11305099	0.048910268	-0.11538427
130	-1.3202956	1.3276129	-0.07875851	0.15133275	-0.97361755	0.16877322	0.8570375	0.347875	0.3205125	0.10351434	0.034167983	-0.13921663
131	-1.1691874	1.3258	-0.22209005	0.14134212	-0.97022283	0.19495502	0.78265	0.077825	0.3939375	0.061715983	-0.018462202	-0.12441986
132	-1.100703	1.3259872	-0.2900518	0.13271728	-0.9681439	0.21071406	0.889075	0.0055	0.4642	0.041594647	0.121553615	-0.18777828
133	-1.0265216	1.3258953	-0.36570203	0.12845899	-0.96639025	0.22114547	0.8613	0.2190375	0.372625	0.12536363	0.01573271	-0.25814852
134	-0.9680182	1.3244935	-0.4265674	0.12041714	-0.96445554	0.23375733	0.562375	0.7885625	0.35145	0.18345137	-0.13482583	-0.34894082
135	-0.90116495	1.3214638	-0.48709327	0.11168794	-0.9652097	0.23497462	0.06325	1.05655	0.3939375	0.20685945	-0.026426304	-0.3958309
136	-0.8617478	1.3239558	-0.5100222	0.10729463	-0.96787673	0.22587578	-0.3570875	0.9392625	0.3034625	0.26518247	0.071240634	-0.3209828
137	-0.86074764	1.3307444	-0.49159688	0.10502959	-0.97043765	0.21572307	-0.533775	0.44	0.2055625	0.31779918	0.11600344	-0.16740502
138	-0.8743337	1.3380181	-0.46243766	0.11936375	-0.9712978	0.20408346	-0.484825	-0.28435	0.0171875	0.3642295	0.10412655	-0.051789872
139	-0.93067575	1.3355594	-0.40258765	0.12785946	-0.9716498	0.19714439	-0.1188	-0.702075	-0.2116125	0.42117727	0.014662086	-0.010905851
140	-0.97492296	1.3359	-0.36754745	0.13800308	-0.97003937	0.19823281	0.283525	-0.6131125	-0.3542	0.3988012	-0.13730012	-0.03473129
141	-0.99976194	1.3296514	-0.35648444	0.1480344	-0.9674896	0.20338847	0.3048375	-0.1901625	-0.4202	0.3221032	-0.2892841	-0.12010101
142	-1.011088	1.308793	-0.35299847	0.16507055	-0.9654944	0.19972296	-0.79035	1.25015	-0.66605	0.4481863	-0.36375636	-0.43111438
143	-1.0359496	1.3017542	-0.30754834	0.17908338	-0.9675575	0.17629103	-1.70555	0.811525	-1.0459625	0.5247851	-0.28137222	-0.5477436
144	-1.1149101	1.2982413	-0.20161861	0.20399965	-0.969502	0.13329357	-2.3854876	-0.573375	-1.3322375	0.43005237	-0.18034515	-0.44155046
145	-1.2732207	1.2908078	-0.02996032	0.23881882	-0.96787226	0.074200794	-2.6483874	-2.3255374	-1.6313	0.18667048	-0.056485515	-0.15543933
146	-1.4864699	1.270887	0.16599676	0.27005145	-0.9624588	0.007911364	-2.6632376	-3.3367126	-1.4566749	-0.14630526	-0.113183446	0.09728742
147	-1.6989435	1.2398719	0.33048737	0.29056665	-0.9546008	-0.06021564	-2.6984375	-2.7484875	-1.0714	-0.31686634	-0.32246342	0.29894653
148	-1.8897384	1.204015	0.4641798	0.30662838	-0.9441019	-0.11818687	-2.5707	-0.323125	-0.94159997	-0.30571094	-0.5368307	0.55488414
149	-2.0311882	1.1653	0.57429457	0.32780445	-0.9329698	-0.14638495	-1.7480375	2.6035626	-0.8639125	-0.40466988	-0.6463421	0.7208039
150	-2.082628	1.1279918	0.650508	0.35316703	-0.92368525	-0.14627364	-1.056275	3.4232	-0.94269997	-0.41657677	-0.38752267	0.2649281
151	-2.0536222	1.1005608	0.6873599	0.3739252	-0.9151926	-0.1480535	-1.0627375	2.585825	-0.95755	-0.25874174	-0.046168238	-0.20729816
152	-2.021083	1.0796555	0.71967703	0.3917147	-0.90557605	-0.16065188	-1.3393875	1.2753125	-0.8129	-0.22576669	0.014949161	-0.15494446
153	-2.0123556	1.0565792	0.75400615	0.40429807	-0.89628077	-0.18039185	-1.5021875	0.4107125	-0.507375	-0.28422162	0.033788458	0.11575883
154	-2.0262854	1.0335897	0.79289764	0.41133454	-0.8880961	-0.2034866	-1.042525	-0.5806625	-0.492525	-0.14375043	0.117148094	0.35068843
155	-2.057346	1.014056	0.82954997	0.42351246	-0.87879443	-0.21834579	-0.4560875	-0.540925	-0.94476247	0.14723676	0.2044825	0.30570054
156	-2.0780828	0.9952303	0.8400028	0.4561511	-0.86133957	-0.22211963	-0.3592875	0.302775	-1.54935	0.28574494	0.23615605	0.11742545
157	-2.042991	0.9341992	0.806757	0.4946425	-0.83856654	-0.22683065	0.078099996	-0.5806625	-0.4489375	-0.25244066	0.20798552	0.17739639
158	-2.034886	0.916125	0.79762065	0.4932258	-0.83798116	-0.23201896	0.494175	-1.4023625	-0.17545	-0.293027	0.16417381	0.21183549
159	-2.0441728	0.91326815	0.7851025	0.48781806	-0.84046566	-0.23445256	0.5963375	-1.100825	0.032175	-0.39943883	0.11171949	0.24098161
160	-2.0569286	0.91719353	0.76672244	0.4799201	-0.84603816	-0.23068015	0.58685	-0.41635	0.4301	-0.5103941	0.19761312	0.24678105
161	-2.0618129	0.92621845	0.751665	0.46679327	-0.8557749	-0.2215193	0.643225	-0.031075	0.8952625	-0.5270379	0.32386357	0.19349179
162	-2.0601008	0.9428118	0.7431224	0.44877836	-0.86906034	-0.20651598	0.80602497	0.41799998	1.1941875	-0.42267743	0.35977897	0.14943646
163	-2.033605	0.99788487	0.72878283	0.41456386	-0.89768845	-0.14700218	1.6542625	1.5233625	1.107975	0.084411696	0.20268844	-0.03556663
164	-1.9898729	1.0295373	0.7037509	0.40152925	-0.9100118	-0.099848375	1.8063375	1.6678749	0.8941625	0.42996925	-0.10364262	-0.3727357
165	-1.9115114	1.0618163	0.65194523	0.39444882	-0.9158215	-0.07069908	0.4719	0.7885625	0.1651375	0.9158417	-0.48306236	-0.92482084
166	-1.8414426	1.0833867	0.6032427	0.40573376	-0.90995	-0.08178158	-0.9702	-0.476025	-1.0022374	1.2121103	-0.8111509	-1.0680655
167	-1.8406419	1.0758188	0.6097159	0.42544186	-0.8991008	-0.09967171	-0.2528625	-1.0170875	-1.15335	0.6116682	-0.48927847	-0.23814175
168	-1.8770275	1.0280484	0.61369354	0.45190802	-0.88546354	-0.1051217	-0.093225	0.3540625	-0.17545	-0.17779487	0.38312405	-0.044725392
169	-1.8718793	1.0166465	0.60579914	0.45244786	-0.88578236	-0.09998792	0.0248875	0.7717875	0.0427625	-0.10535306	-0.25213805	0.033214215
170	-1.862819	1.0166022	0.60678554	0.4516789	-0.88712674	-0.091157526	0.068475	0.5918	0.15455	0.06708258	-1.002277	-0.19344492
171	-1.8473531	1.0205375	0.60709584	0.45414358	-0.8822251	-0.121448755	-0.9626375	-0.648725	-0.3722125	0.11883807	-0.1928972	-0.28079894
172	-1.8867663	1.0118072	0.6302679	0.4573626	-0.87841976	-0.13607174	-0.3774375	-0.301125	-0.10835	-0.40098643	0.29523933	0.33087295
173	-1.9162439	1.0010012	0.65437037	0.4532839	-0.88097346	-0.13317887	0.4739625	0.098725	0.3663	-0.69242764	0.46109584	0.6449067
174	-1.9212407	1.0028844	0.6552655	0.44256037	-0.88857156	-0.11788931	0.6347	0.3928375	0.7579	-0.6744717	0.31120157	0.45111564
175	-1.90224	1.0177729	0.63911885	0.41803452	-0.90228516	-0.10220672	0.29947498	0.3751	1.0877625	-0.5361844	-0.02126227	0.25817004
176	-1.8829435	1.0489042	0.6272415	0.3952383	-0.91326845	-0.0951023	0.233475	0.113299996	1.2208625	-0.3647643	-0.32495785	0.24647845
177	-1.879924	1.0748745	0.6309964	0.37062615	-0.9246502	-0.083519354	0.9741875	-0.3304125	1.320825	-0.20028974	-0.45322442	0.2620056
178	-1.8770913	1.1029199	0.6270049	0.34598535	-0.9358985	-0.060869876	1.5775375	-0.8988375	1.1719126	-0.03110767	-0.20488131	0.19898914
179	-1.8503959	1.1361854	0.5858169	0.3249703	-0.9447593	-0.033784054	1.869175	-1.1490875	1.0547625	0.011925716	0.1276339	0.096475184
180	-1.7468263	1.1946278	0.42685097	0.29006833	-0.95642	0.020939467	1.33925	-0.41525	0.8259625	0.055803213	0.21157289	-0.29505262
181	-1.6570802	1.226343	0.30604237	0.28574732	-0.9576037	0.025705675	0.6208125	0.0369875	0.667425	0.16124044	0.07656391	-0.20827448
182	-1.621256	1.2375525	0.26822546	0.27583426	-0.95897675	0.059968248	0.8837125	-0.724075	0.375925	0.09644403	0.059083767	0.17509292
183	-1.5459526	1.2436589	0.18321297	0.2719826	-0.9587865	0.07791635	1.0943625	-0.55439997	0.2864125	0.05951586	0.13115656	0.13595214
184	-1.4938787	1.2484094	0.11405646	0.26754415	-0.9578343	0.101443864	1.3019875	-0.0760375	0.31515	0.055192854	0.14876701	0.12190475
185	-1.4237304	1.2508711	0.032629214	0.2609361	-0.9557372	0.13340202	1.656325	0.573925	0.4109875	0.065470636	0.123015426	0.07485485
186	-1.3269188	1.2509594	-0.06577436	0.24933293	-0.95270485	0.17176536	1.8745375	1.1339625	0.58341247	0.047715988	0.044554964	-0.109792866
187	-1.07718	1.2473583	-0.2880737	0.21796656	-0.9503664	0.22048046	0.5325375	0.34265	0.6611	0.118929476	-0.15870093	-0.6484162
188	-0.9935886	1.2494409	-0.35842514	0.21090679	-0.9523625	0.21872653	0.2633125	-0.09075	0.62067497	0.20897086	0.012194295	-0.36510268
189	-0.96211714	1.2605681	-0.39553216	0.2065684	-0.9532661	0.21893056	0.20693749	-6.875E-4	0.568425	0.2817038	0.036859363	-0.1788694
190	-0.9450832	1.2640439	-0.41435418	0.20555241	-0.95324147	0.2199911	0.2462625	-0.161975	0.4291375	0.29903474	0.08168186	-0.13211648
191	-0.9454366	1.2623346	-0.41799733	0.20862643	-0.95270455	0.21942265	0.2101	-0.116875	0.275825	0.30625123	0.06677188	-0.17864284
192	-0.9465683	1.261105	-0.42271894	0.2181556	-0.95251346	0.21081607	-0.0251625	-0.17765	0.159775	0.26299122	0.069944665	-0.22518916
193	-0.97583216	1.2585584	-0.398722	0.22818203	-0.95269126	0.19907123	-0.3177625	-0.7220125	0.0694375	0.2483776	0.08530592	-0.15636481
194	-1.0127552	1.2570025	-0.37029487	0.23499735	-0.9533291	0.18776737	-0.3040125	-1.135475	-0.0881375	0.29772437	-0.026594486	-0.014984498
195	-1.0516837	1.2587924	-0.34909043	0.24439311	-0.9526366	0.17908826	-0.1071125	-1.091475	-0.3254625	0.2960809	-0.21922882	0.031615105
196	-1.0922971	1.2571604	-0.3305242	0.2568915	-0.9504747	0.1729795	-0.0666875	-0.86845	-0.5223625	0.28144184	-0.36614618	-0.027214969
197	-1.1281747	1.2502054	-0.31458363	0.27101463	-0.9478043	0.16593723	-0.3784	-0.30635	-0.689425	0.318282	-0.43548316	-0.182451
198	-1.2228485	1.2307111	-0.23192038	0.28806013	-0.94591546	0.14690948	-1.3905375	0.010725	-1.0065	0.36718452	-0.4307359	-0.44782692
199	-1.3405861	1.2182518	-0.109164365	0.34349084	-0.9373972	0.05116366	-2.7462876	-1.0767624	-1.573825	0.06588224	-0.2639331	-0.083273746
200	-1.6536291	1.1679932	0.1862866	0.38725114	-0.91932654	-0.06474673	-2.3546875	-1.5541625	-1.098075	-0.36167008	-0.29545936	0.45026663
201	-1.88719	1.1061373	0.38430312	0.42481878	-0.89576787	-0.12824214	-1.435225	1.9765625	-0.8234875	-0.584146	-0.59975207	0.5498476
202	-1.9239616	1.0766376	0.4457243	0.44307643	-0.88705814	-0.12699766	-1.0542125	2.4036374	-0.9117625	-0.5782446	-0.29653513	0.04698237
203	-1.9095684	1.0381502	0.52710855	0.4717256	-0.8689665	-0.14727324	-1.648075	1.7734749	-0.6351125	-0.42004365	-0.03256258	0.007410856
204	-1.9123236	1.0168095	0.5741471	0.4812798	-0.86151636	-0.15961476	-1.517175	1.07855	-0.3095125	-0.35314524	-0.013712981	0.28877378
205	-1.921592	0.9995324	0.62307227	0.48886856	-0.85457546	-0.17327827	-0.98505	0.110275	-0.47025	-0.13218659	0.07089047	0.373477
206	-1.9470632	0.965919	0.6727843	0.5326369	-0.8237886	-0.19232152	-0.583825	0.0726	-1.51415	0.1824549	0.21400265	0.07102182
207	-1.9458802	0.9340699	0.6707533	0.5535129	-0.8080612	-0.19994527	-0.45925	0.012925	-0.9884875	-0.16585234	0.1877707	0.12023579
208	-1.9477397	0.8892564	0.6712352	0.5614317	-0.80024105	-0.20910706	0.4505875	-0.787875	-0.2168375	-0.4786641	0.17557746	0.2726086
209	-1.9538876	0.88600904	0.66168	0.56076795	-0.801583	-0.2057212	0.593175	-0.291775	-0.004125	-0.5816701	0.20107843	0.3079689
210	-1.9370867	0.8977995	0.62469107	0.54622555	-0.81818175	-0.17757638	0.69107497	0.7121125	0.994125	-0.61717355	0.29065883	0.23323387
211	-1.9225026	0.9113986	0.6166434	0.526806	-0.8351739	-0.15581065	0.820875	0.823075	1.5114	-0.528228	0.24148884	0.15050484
212	-1.8985708	0.9392518	0.6061036	0.49961922	-0.8556935	-0.13223644	1.0285	0.6859875	1.7732	-0.25700453	0.116748594	0.010019303
213	-1.8735567	0.97661644	0.5945659	0.47297665	-0.8750301	-0.09966187	1.7382749	1.0533875	1.5453625	0.28043312	-0.16666716	-0.28871733
214	-1.8367765	1.0164938	0.5678936	0.45576853	-0.8879821	-0.055500027	1.5467374	1.3903999	0.734525	0.9733905	-0.4638069	-0.81402594
215	-1.7095797	1.0552928	0.48254764	0.4867991	-0.87149674	-0.05326615	-0.762575	0.0578875	-1.5417875	1.0390878	-0.419222	-0.48690206
216	-1.7207317	1.0280792	0.51283157	0.51611423	-0.85407346	-0.059177924	0.0100375	-0.430925	-1.376925	0.19478792	0.07558719	0.08231248
217	-1.7263708	0.99302226	0.51548684	0.53281593	-0.84377146	-0.058942325	-0.0155375	0.1489125	-0.7011125	-0.12659268	0.32450536	-0.10721975
218	-1.7234368	0.9703704	0.5068416	0.5427644	-0.83744615	-0.058376513	0.0270875	-0.1524875	-0.3669875	0.13001847	0.21859294	0.1345233
219	-1.717906	0.9574874	0.50313514	0.5482071	-0.83443284	-0.05008101	0.741125	0.044275	-0.2828375	0.35290912	-0.56464976	0.2930015
220	-1.7085242	0.9515521	0.49157134	0.5524107	-0.83165056	-0.050169017	0.8199125	-2.4124374	-0.360525	0.2041642	-1.0640681	0.35853294
221	-1.698076	0.94768316	0.45959926	0.5535484	-0.82965	-0.06769246	0.0834625	-1.00045	-0.2211	-0.23377776	-0.97911143	-0.29010573
222	-1.7318399	0.9442655	0.4378074	0.56200856	-0.8242812	-0.06343766	-0.7742625	1.81115	-0.442475	-0.6930024	-0.5175078	-1.058076
223	-1.7292594	0.93602026	0.44964206	0.5601985	-0.82600665	-0.05664011	-0.36355	1.0198375	0.25135	-1.1160548	0.18421765	0.19527926
224	-1.7147324	0.9349449	0.46850994	0.54621226	-0.83599	-0.04571783	-0.1890625	1.331825	0.9675875	-0.9985059	0.40173924	0.55347013
225	-1.7000741	0.94903255	0.4778663	0.53064036	-0.8464752	-0.03490168	-0.336875	1.2596375	0.913275	-0.67753637	0.18123053	0.3224705
226	-1.6812725	0.9685586	0.48854026	0.5097648	-0.8593962	-0.029918524	-0.39435	0.5498625	1.0260249	-0.60150796	-0.2489677	0.30331302
227	-1.6703675	0.99279356	0.50206506	0.48707587	-0.8723917	-0.031734414	0.02805	-0.43408749	1.2794375	-0.5023664	-0.3773484	0.37199435
228	-1.6780022	1.049798	0.49958503	0.43153206	-0.90158576	-0.015510148	1.509475	-2.5705626	1.2826	-0.096562654	0.013925199	0.27870587
229	-1.6322854	1.1130465	0.35071462	0.38631815	-0.920568	0.05128777	3.4420376	-1.43165	1.4911875	0.10144946	0.028320238	0.04932385
230	-1.4142231	1.162155	0.04169828	0.34499305	-0.928671	0.13366938	0.837925	1.001	0.6589	0.25306508	0.103288755	-0.6677214
231	-1.3092794	1.1740292	-0.06135061	0.33871213	-0.93006516	0.13989307	-0.0422125	0.5823125	0.1555125	0.12540105	0.25310796	-0.3499848
232	-1.2741772	1.1793984	-0.08124312	0.33532995	-0.93039346	0.14573674	0.397375	0.0924	0.2013	-0.015559303	0.19196837	0.03785653
233	-1.2591614	1.1812854	-0.08870021	0.33142602	-0.9288608	0.1633756	1.0274	-0.3680875	0.3546125	0.01892567	0.047515143	0.09859688
234	-1.1606628	1.1784532	-0.20494433	0.31292397	-0.9277107	0.20186281	1.411575	0.2316875	0.627	-0.042893372	-0.029277023	-0.21542552
235	-1.1056012	1.1825374	-0.2711094	0.2988009	-0.9287022	0.21805432	0.9326625	0.5226375	0.684475	-0.012256538	0.012295496	-0.34221333
236	-1.0446343	1.1861095	-0.3313281	0.28801548	-0.9302041	0.22601905	0.6028	0.41799998	0.635525	0.088635884	0.02450068	-0.26332793
237	-1.0043771	1.1908447	-0.36713955	0.27980766	-0.930862	0.2334967	0.55385	0.0746625	0.651475	0.13222599	0.040540878	-0.13777803
238	-0.94365835	1.1947125	-0.43203112	0.27527043	-0.9294572	0.24423939	0.545325	-0.138875	0.340725	0.22809349	0.043723196	-0.18521798
239	-0.93167406	1.1928086	-0.4537759	0.27452764	-0.9285362	0.2485403	0.284625	0.0526625	0.179025	0.24983019	-0.006219201	-0.23956478
240	-0.91719353	1.1906027	-0.4721889	0.2748023	-0.92862636	0.24789977	-0.0411125	-0.2541	0.08855	0.31062582	-0.074936345	-0.19519335
241	-0.9130019	1.1902604	-0.4782327	0.27723077	-0.9289511	0.24394737	-0.0411125	-0.45815	0.0086624995	0.4041148	-0.19938228	-0.10338162
242	-0.93260324	1.1902595	-0.47323924	0.28034565	-0.92832464	0.24276909	0.021724999	-0.0875875	-0.10945	0.35095406	-0.29603323	-0.12461924
243	-0.94173336	1.188632	-0.463674	0.284157	-0.9279731	0.23966177	-0.29645	0.109175	-0.27335	0.25579712	-0.32809728	-0.2367107
244	-1.0259712	1.186022	-0.3662554	0.3070066	-0.9280776	0.20913173	-1.3510749	-0.22165	-0.9299125	0.4105316	-0.3372588	-0.4219758
245	-1.3006097	1.1697667	-0.11496694	0.36759374	-0.9231731	0.10928581	-2.74945	-2.0554874	-1.6302	0.093063734	-0.17274433	-0.26127356
246	-1.4881026	1.1499292	0.038390517	0.39889333	-0.91589844	0.036485188	-2.9528124	-2.783	-1.5503125	-0.18065172	-0.16728196	0.05383591
247	-1.668257	1.1217762	0.1749215	0.4227979	-0.90502393	-0.038605317	-2.9261374	-2.519275	-1.2566125	-0.29639116	-0.35786593	0.37060836
248	-1.8127737	1.0884877	0.29428867	0.44155684	-0.890922	-0.10296845	-2.9431875	-0.4225375	-1.1097625	-0.27875865	-0.6974572	0.5606596
249	-1.8127737	1.0884877	0.29428867	0.4634675	-0.8757507	-0.1325729	-2.2653124	2.8611	-0.900075	-0.4476724	-0.8756255	0.75173193
250	-1.8803036	1.0531471	0.3914642	0.48696014	-0.8642955	-0.12320922	-1.3063875	4.2469625	-0.851125	-0.67024755	-0.56709594	0.37836212
251	-1.8182161	1.0044813	0.49547637	0.523528	-0.84144944	-0.13114329	-2.1652124	1.3767875	-0.7330125	-0.5806075	-0.13214377	-0.37466714
252	-1.8303676	0.98247635	0.56541425	0.5298545	-0.83286345	-0.15782788	-1.9960874	0.153175	-0.37867498	-0.45635298	-0.06794691	0.24080953
253	-1.9120853	0.9495924	0.68371344	0.53681064	-0.81703764	-0.2088089	-0.6934125	-0.7282	-0.605275	-0.03191766	0.13446885	0.4622187
254	-1.9493113	0.93559504	0.7110528	0.5625403	-0.79831123	-0.21345899	-0.616825	0.4305125	-1.4344	0.2878114	0.20217973	0.20723575
255	-1.9354047	0.87218714	0.70996326	0.6098288	-0.7605699	-0.22126757	-0.5753	0.1280125	-0.6447375	-0.37282577	0.187894	0.17590061
256	-1.9295975	0.8440943	0.72005653	0.61053556	-0.7572898	-0.23038109	0.1621125	-1.0318	-0.0796125	-0.5466212	0.16574553	0.2389438
257	-1.9391984	0.83509356	0.72413844	0.6038094	-0.7601682	-0.23848653	0.593175	-1.2694	0.100237496	-0.5877085	0.16648315	0.269985
258	-1.9557616	0.83796525	0.7133696	0.594808	-0.7668397	-0.23974423	0.57928747	-0.60885	0.4514125	-0.69531256	0.22372042	0.26971364
259	-1.9659207	0.8468021	0.6986542	0.58126646	-0.77897304	-0.23376782	0.5911125	-0.0928125	1.0091125	-0.73008907	0.3358538	0.25353846
260	-1.9626329	0.8904191	0.68501437	0.5398729	-0.8171902	-0.20013511	1.0220375	0.7634	1.49435	-0.30939886	0.39170086	0.104722254
261	-1.9477589	0.9240707	0.6768754	0.53032863	-0.8308587	-0.1665612	1.6999125	2.1492624	1.23255	0.13246953	0.1602165	-0.14311768
262	-1.9107405	0.94975835	0.6584098	0.52493775	-0.84331095	-0.112179585	1.1677876	2.7385874	0.38115	0.8620195	-0.43517527	-0.8130039
263	-1.8216951	0.97839206	0.61098	0.5397781	-0.83579916	-0.096936315	-1.1680624	1.1328624	-1.210825	1.5493197	-0.94218254	-1.6358924
264	-1.7654823	0.9747952	0.60354143	0.56137645	-0.81849724	-0.11931449	-0.0889625	-2.0409124	-1.3737625	1.0616664	-0.6619309	-0.4558078
265	-1.7882065	0.94357973	0.6247099	0.5746489	-0.80660826	-0.13593578	0.6358	-2.032525	-0.9117625	0.18487705	-0.04466083	0.08475841
266	-1.8155246	0.92048556	0.6033179	0.57953215	-0.8017755	-0.14358199	0.2547875	-0.778525	-0.327525	-0.23630585	0.16435958	-0.08190732
267	-1.8294429	0.91018504	0.58109903	0.56840456	-0.8103046	-0.14014123	-0.1208625	0.692175	0.065175	-0.34527	-0.17451198	0.06480484
268	-1.8323514	0.9240077	0.5763716	0.56935346	-0.8120973	-0.1251086	0.0100375	1.48885	0.1225125	-0.023680676	-0.9051351	0.0077844393
269	-1.8115531	0.9265948	0.5823805	0.57236445	-0.8099499	-0.1252895	-0.1123375	-1.0014125	-0.3999875	0.34557137	-1.1829096	0.12467787
270	-1.798311	0.92566246	0.57837653	0.578348	-0.80262935	-0.14358574	-0.896775	-0.0666875	-0.46805	-0.062950425	-0.628762	-0.31899834
271	-1.825179	0.9144613	0.5898246	0.5811542	-0.80010176	-0.14633526	-0.0218625	0.3185875	0.080025	-0.79930407	0.13465832	0.16050957
272	-1.8344858	0.9063537	0.6078352	0.5700462	-0.8095629	-0.13774094	0.5729625	-0.1368125	0.87065	-1.0582266	0.41506752	0.6106308
273	-1.8258342	0.9178256	0.60015166	0.5518783	-0.8232384	-0.13048309	0.29205	0.04015	1.1303875	-0.8205786	0.32843715	0.37309778
274	-1.8204061	0.94069797	0.5913058	0.5293202	-0.83854073	-0.1264409	-0.1634875	0.3458125	1.2590874	-0.6135251	-0.021505209	0.25070697
275	-1.8210449	0.96820444	0.59602004	0.503961	-0.85446393	-0.123416215	-0.18053749	0.6912125	1.6104	-0.5698173	-0.47316602	0.34971592
276	-1.8273268	0.99636555	0.61524713	0.47613704	-0.87168473	-0.113034315	0.48565	0.49335	1.617825	-0.38000557	-0.61138874	0.39376828
277	-1.8250604	1.0296146	0.6289366	0.44895956	-0.8884395	-0.09180389	1.328525	-0.2446125	1.4103374	-0.16822562	-0.26854837	0.33909747
278	-1.8008895	1.0654858	0.6080139	0.42439443	-0.9030371	-0.061079618	1.8904874	-1.12915	1.1548625	-0.047223184	0.024443809	0.23997872
279	-1.7496688	1.1008148	0.54006386	0.40393078	-0.9139841	-0.028110795	2.5694625	-1.133275	1.1048125	0.0059621655	0.18768442	0.19283557
280	-1.6916915	1.128829	0.44854918	0.38200969	-0.9235586	0.020621585	2.93865	-0.181775	1.29635	0.05499337	0.22825275	-0.03254819
281	-1.588708	1.1556301	0.31741896	0.36246687	-0.92989296	0.05686504	1.772375	0.649275	1.1814	0.18340467	0.13428137	-0.47816476
282	-1.4852699	1.1759598	0.20460692	0.3498521	-0.93365186	0.07221473	0.308	0.5676	0.5259375	0.31539255	0.081862874	-0.47201598
283	-1.4110284	1.188544	0.14633575	0.349181	-0.932641	0.08700987	0.68145	-0.029975	0.2492875	0.013311339	0.0925799	0.1622256
284	-1.3800374	1.190007	0.1188805	0.3431819	-0.9328193	0.10673136	1.1614625	-0.257125	0.3843125	-0.037065677	0.09673368	0.14739707
285	-1.3295413	1.19184	0.062448617	0.33556214	-0.93246216	0.13126156	1.4360499	-0.160875	0.471625	-0.051464263	0.112477474	0.054472383
286	-1.2641983	1.1927333	-0.012956808	0.3244675	-0.93193936	0.15977086	1.5307875	0.27775	0.6142125	-0.08062959	0.06874359	-0.07434272
287	-1.118267	1.2035366	-0.16437522	0.28637043	-0.9370683	0.19802105	0.952875	0.6796625	0.897325	0.03758981	-0.1004394	-0.28854093
288	-0.96987844	1.213934	-0.29715267	0.26080847	-0.9387293	0.22379282	0.61448747	0.34155	0.668525	0.28189796	0.03638982	-0.26110166
289	-0.92604214	1.2160201	-0.33742693	0.2703207	-0.9378566	0.21602947	0.314325	0.111237496	0.4642	0.2909484	0.11389632	-0.28330776
290	-0.9513763	1.2129928	-0.3133441	0.27484253	-0.9372497	0.21293649	0.1461625	-0.2237125	0.225775	0.2820382	0.086989775	-0.19948083
291	-0.9592883	1.2116838	-0.30860424	0.28012177	-0.9361698	0.21079616	0.0994125	-0.56705	0.0523875	0.25891492	0.048815098	-0.1053986
292	-0.96846926	1.2091959	-0.30760717	0.28629324	-0.9352711	0.20644914	0.0397375	-0.946	-0.0253	0.2620248	-0.009790083	-0.082901746
293	-0.98487824	1.2067925	-0.30602702	0.29357672	-0.9340606	0.20164515	0.0983125	-0.9480625	-0.1923625	0.28276885	-0.19213212	-0.08716503
294	-1.0312183	1.1975322	-0.2985134	0.30871642	-0.93174326	0.18938258	-0.5572875	-0.3524125	-0.28187498	0.10290437	-0.3526604	-0.29305232
295	-1.1031197	1.1981345	-0.23522072	0.33033797	-0.93327194	0.13855527	-1.665125	-0.6601375	-0.8394375	0.50024307	-0.33155987	-0.28523722
296	-1.1860833	1.1992478	-0.15496954	0.3565924	-0.9292549	0.09297473	-2.1844625	-1.5457749	-1.439625	0.55961555	-0.23894091	-0.2386475
297	-1.3133748	1.1899941	-0.0380326	0.39134067	-0.9193463	0.031183675	-2.5845876	-2.4982374	-1.766325	0.23537187	-0.15485862	-0.09234576
298	-1.6570573	1.1326264	0.23412216	0.4407167	-0.88787735	-0.12945777	-3.463625	-2.420825	-1.3311375	-0.3076892	-0.6028413	0.36818865
299	-1.8357216	1.0923715	0.3687104	0.46022	-0.86528945	-0.19694926	-3.3529375	0.40645	-1.2045	-0.31965426	-0.89812034	0.67248446
300	-1.9700569	1.0453138	0.48687628	0.4884863	-0.8447849	-0.2168803	-2.2323124	3.7268	-0.818125	-0.56504595	-0.9896646	0.9277825
301	-2.0063784	1.0013391	0.5734711	0.51595706	-0.83311504	-0.197547	-1.0467875	4.2469625	-0.590425	-0.74806714	-0.5071448	0.6389384
302	-1.9629858	0.9759471	0.61981654	0.53415483	-0.827244	-0.17223035	-0.533775	2.85175	-0.73095	-0.6346594	-0.03911688	-0.12695926
303	-1.8923503	0.9475142	0.66622174	0.5552236	-0.8048657	-0.20793094	-1.7491375	-0.19965	-0.6829625	-0.37479544	-0.05710681	-0.09034124
304	-1.9260937	0.92808473	0.7094563	0.5644851	-0.7907329	-0.23540342	-1.4884375	-0.2729375	-0.6851625	-0.3157542	0.025595315	0.3672077
305	-1.9635895	0.9042559	0.7521404	0.57536095	-0.77678585	-0.25471747	-0.75625	-0.594275	-0.95755	-0.13621725	0.11643415	0.5691976
306	-1.9883305	0.88165927	0.7746317	0.59439254	-0.7596847	-0.26247755	-0.3752375	-0.1012	-1.3875124	0.0657451	0.20066327	0.42455706
307	-1.992949	0.856226	0.7721603	0.6179351	-0.739237	-0.266462	-0.49335	0.23265	-1.4130875	0.013869205	0.24882416	0.24088097
308	-1.9851846	0.82574505	0.7644482	0.63338435	-0.7240672	-0.27178755	-0.3251875	-0.1461625	-0.738375	-0.2879256	0.2150917	0.27932578
309	-1.9807488	0.8000461	0.7623214	0.6351771	-0.7201023	-0.2780643	0.232375	-0.6705875	-0.14245	-0.51040643	0.16250294	0.36541906
310	-1.9868561	0.7904634	0.7600192	0.6306233	-0.7236534	-0.27920765	0.6879125	-0.7365875	0.097075	-0.6206386	0.11998364	0.37533912
311	-1.9926486	0.7936218	0.7477481	0.6236509	-0.73154736	-0.2742535	0.81565	-0.3744125	0.375925	-0.7285439	0.15345868	0.31676114
312	-1.9924756	0.80367947	0.7299005	0.6129264	-0.7449602	-0.26205462	0.9411875	0.075625	0.8941625	-0.7813209	0.20448619	0.25624424
313	-1.9845738	0.8210456	0.71331054	0.5948216	-0.7658373	-0.24289463	1.0912	0.34155	1.4741375	-0.70602953	0.19407894	0.19171727
314	-1.9699016	0.8500731	0.69865113	0.5704676	-0.79087406	-0.22000462	1.1668249	0.5258	1.731675	-0.4325471	0.17741841	0.05231348
315	-1.9521455	0.8887802	0.6852648	0.55141044	-0.8127522	-0.18627264	1.494625	1.9515375	1.3591875	0.13115835	0.025902027	-0.2501188
316	-1.9214381	0.9269943	0.668276	0.54573554	-0.82755715	-0.12899242	1.8830625	2.39745	0.51315	0.8417263	-0.30180067	-0.4918027
317	-1.8372552	0.9572728	0.62365896	0.55264926	-0.82714015	-0.098666996	-0.1496	0.8503	-0.7022125	1.406571	-0.75409836	-1.2174339
318	-1.7624943	0.9651834	0.57929355	0.57077223	-0.81306577	-0.111626394	-0.323125	-0.939675	-1.246025	1.1306498	-0.62902904	-0.6495357
319	-1.7690259	0.94335276	0.5878383	0.5887382	-0.798983	-0.11970949	0.3623125	-0.8193625	-1.0533875	0.1590753	-0.032316726	0.04948013
320	-1.7812015	0.9181276	0.57785726	0.59999603	-0.7907357	-0.11857142	0.0642125	0.1720125	-0.55962497	-0.15126519	0.30052167	-0.1579882
321	-1.7781192	0.90251243	0.56202483	0.6079948	-0.7847703	-0.1174532	0.021724999	-0.139975	-0.33605	0.07487986	0.3612229	0.1684165
322	-1.7716027	0.89182895	0.55886626	0.6102703	-0.784666	-0.10576718	0.6358	0.9235875	0.097075	0.11572356	-0.49239826	0.44460508
323	-1.7611618	0.88907236	0.55022055	0.6048772	-0.7911563	-0.08667434	1.0635625	-0.626725	0.48125	0.07841025	-1.3108773	0.3073624
324	-1.7272576	0.89769113	0.5230049	0.59846354	-0.7954778	-0.09150663	-0.78815	0.097625	0.0715	-0.068188295	-1.6336812	-1.0812762
325	-1.72924	0.90831476	0.5045624	0.6051986	-0.7876891	-0.112239696	-1.319175	-0.3419625	-0.5361125	-0.54984695	-0.92780024	-0.84514564
326	-1.7552246	0.8988924	0.542585	0.58790505	-0.8003566	-0.11451754	-0.5732375	-0.8119375	0.3524125	-1.0963607	0.21401107	0.7968876
327	-1.787018	0.9310487	0.5649241	0.54855925	-0.8284654	-0.10974973	0.101475	0.660825	1.241075	-0.7386663	0.54334307	0.46010143
328	-1.7813162	0.958094	0.5697279	0.5286202	-0.841033	-0.11198872	-0.5124625	-0.1964875	1.1176	-0.60690767	0.08373941	0.27356365
329	-1.8211364	1.0067596	0.6128761	0.4670286	-0.8709602	-0.15043221	-0.0218625	-1.8451124	1.6741999	-0.40433747	-0.6980459	0.48590624
330	-1.8787028	1.036867	0.6480734	0.4368804	-0.8848816	-0.15949035	1.07525	-2.6835876	0.9898625	0.02764557	-0.48759547	0.5114781
331	-1.9244101	1.0674893	0.6508593	0.41862926	-0.8985284	-0.1292808	2.7578375	-2.2512875	0.6483125	0.03713526	0.030439708	0.43172726
332	-1.897131	1.097804	0.56602204	0.40433356	-0.9112399	-0.07398349	3.8006375	-0.6864	0.67705	-0.0068870885	0.2623103	0.24482447
333	-1.8058354	1.1288903	0.42870915	0.39065418	-0.9200996	-0.011108716	3.1972876	0.0726	0.882475	0.08518681	0.201858	-0.02762217
334	-1.6597999	1.154433	0.2591883	0.39767954	-0.9165818	0.032341816	2.064975	1.9504375	0.5504125	0.25288624	0.1720405	-0.17627148
335	-1.5472854	1.1502671	0.14643186	0.39970076	-0.9135557	0.07051806	0.88261247	2.7249749	-0.1456125	0.2530974	0.11722543	-0.24839269
336	-1.4436247	1.147081	0.08127244	0.40034848	-0.9101183	0.103551835	0.562375	3.26095	-0.30525	-0.005853091	0.07514885	-0.21384235
337	-1.3631599	1.139757	0.055696316	0.39211088	-0.9092425	0.13727488	0.707025	2.9385126	0.05555	-0.17682037	-0.005237626	-0.21047059
338	-1.2078897	1.1438898	0.007532467	0.35611686	-0.91844517	0.17016612	0.6400625	0.75185	0.74195	-0.10126976	-0.02100436	-0.32123646
339	-1.1221619	1.1694514	-0.053113688	0.32694012	-0.92619884	0.18596555	0.7794875	-0.7365875	1.03565	0.10292228	0.0390429	-0.064360045
340	-1.0497202	1.1832263	-0.15984632	0.30710065	-0.9271091	0.21324854	1.2285625	-0.7794875	0.8993875	0.28127858	0.047491424	-0.05678066
341	-1.004071	1.1841621	-0.23240948	0.2998602	-0.92607194	0.22757801	0.8624	0.055825	0.6483125	0.36079732	0.080399215	-0.24511623
342	-0.9603526	1.1822492	-0.29229918	0.29371488	-0.9261054	0.23532428	0.1984125	0.60225	0.2715625	0.37417504	0.034775086	-0.36488086
343	-0.92745066	1.1822131	-0.32268205	0.29293808	-0.9265617	0.23449439	-0.0985875	0.22013749	0.016224999	0.2721995	-0.025533097	-0.257843
344	-0.92974675	1.1838331	-0.31221637	0.2994437	-0.9259933	0.22844516	0.12925	-0.6298875	-0.018975	0.15610678	-0.20019937	-0.16472957
345	-0.94146603	1.1827842	-0.31223425	0.30210173	-0.9260257	0.22478448	-0.1188	-0.3848625	0.0012375	0.10534477	-0.28417307	-0.30062544
346	-0.9767714	1.1861699	-0.29588398	0.31178126	-0.9312646	0.1866976	-1.199	-0.91245	-0.3158375	0.33511478	-0.39798617	-0.23960279
347	-1.1297263	1.1957277	-0.1713541	0.36133495	-0.92598224	0.106354915	-1.9822	-2.3967624	-1.507825	0.48086688	-0.20796272	-0.15578917
348	-1.2655027	1.1843544	-0.06601304	0.39672938	-0.9166718	0.04044522	-2.611125	-3.0646	-1.7089875	0.08664981	-0.22267069	-0.04666846
349	-1.4403874	1.1619693	0.0652449	0.424528	-0.90428233	-0.03696764	-2.955975	-3.0687249	-1.4546125	-0.23267786	-0.36769015	0.22545387
350	-1.6275269	1.1323274	0.20118119	0.4436095	-0.8889316	-0.11103449	-3.1645625	-1.492425	-1.164075	-0.29937404	-0.6098452	0.51286936
351	-1.7937466	1.0978189	0.3276383	0.46382377	-0.87060964	-0.16193609	-3.0559375	1.8217375	-1.0087	-0.36738643	-0.9164393	0.746141
352	-1.9030466	1.0590268	0.44379076	0.49002448	-0.8546839	-0.1694362	-2.0183625	4.1245875	-0.7458	-0.6454832	-0.83716637	0.834161
353	-1.9188769	1.0242122	0.53164476	0.5127947	-0.84509385	-0.14891312	-0.960575	3.9623375	-0.8160625	-0.76100564	-0.3530713	0.32097736
354	-1.8750829	1.0042604	0.57785463	0.52233326	-0.8388937	-0.15080594	-0.9042	1.375825	-0.9480625	-0.5813547	0.003220911	-0.44746625
355	-1.8602166	0.99325913	0.62176603	0.51374304	-0.835798	-0.19190305	-1.5129125	-0.2382875	-0.7181625	-0.4342323	-0.03015001	-0.2985098
356	-1.9653181	0.96548593	0.73047423	0.5332353	-0.809123	-0.24555406	-1.1521125	-0.3680875	-0.8969125	-0.17441268	0.0759884	0.51650214
357	-1.9989754	0.94133914	0.76298535	0.5522607	-0.7925016	-0.2574229	-0.8179875	0.0411125	-1.3226125	2.3171077E-4	0.10973403	0.48249936
358	-2.0089157	0.9148715	0.77130264	0.57876	-0.77169466	-0.26237637	-0.78705	0.6785625	-1.5109875	3.2032178E-5	0.1482543	0.37022042
359	-2.0020595	0.8822753	0.7729244	0.60426414	-0.7514381	-0.26367247	-0.4497625	0.4629625	-1.3481874	-0.1157779	0.21096407	0.36448285
360	-1.9879948	0.84956896	0.77200466	0.6185624	-0.73921937	-0.2650529	0.0419375	-0.275	-0.649	-0.35200274	0.15603895	0.31142905
361	-1.9785651	0.8270526	0.76541203	0.6182573	-0.73849016	-0.2677827	0.58465	-0.8716125	-0.0977625	-0.55261505	0.064682834	0.32149827
362	-1.9811351	0.8223732	0.7534199	0.6132871	-0.7432816	-0.26594886	0.7997	-0.668525	0.0906125	-0.61236966	0.066110335	0.34403756
363	-1.9835676	0.8282573	0.73344517	0.60612804	-0.75172293	-0.25853193	0.7645	-0.215325	0.5152125	-0.74599046	0.15895534	0.290535
364	-1.9790765	0.8391485	0.7141558	0.59119195	-0.7670597	-0.24784788	0.80396247	-0.0886875	1.1847	-0.816987	0.24534714	0.22449927
365	-1.9686143	0.89232737	0.6939044	0.5385033	-0.81324047	-0.21902387	1.0379875	0.22013749	1.731675	-0.28315157	0.22588567	0.009849555
366	-1.9325476	0.9693546	0.6689152	0.51772314	-0.84326446	-0.14207445	1.067825	1.3182125	0.077825	1.0735154	-0.5873166	-0.7435525
367	-1.8585892	0.99428535	0.6231581	0.5323961	-0.8343101	-0.14070538	-0.895675	0.1720125	-1.15665	1.3330474	-0.9285798	-1.1178114
368	-1.8311484	0.9864344	0.61393374	0.554443	-0.81765497	-0.15280987	-0.16885	-0.48427498	-1.423675	0.59275883	-0.3861218	-0.12374976
369	-1.8439431	0.9571832	0.6253087	0.57246757	-0.8050623	-0.15320896	0.1643125	-0.0226875	-0.901175	-0.13944006	0.1956892	0.15392762
370	-1.83997	0.93271434	0.61136293	0.58350885	-0.7976303	-0.15040076	-0.2124375	0.401225	-0.5127375	-0.09431926	0.4743887	0.021348767
371	-1.8296583	0.9189123	0.6033826	0.59263575	-0.79166657	-0.14616384	0.052525	0.401225	-0.2828375	0.23101869	0.042935662	0.25747883
372	-1.7914137	0.9066925	0.58881277	0.59638995	-0.7942947	-0.11283763	-0.2869625	-0.1243	-0.0158125	0.37945104	-1.5277237	-0.526719
373	-1.7607497	0.9112019	0.56903994	0.60209876	-0.78510535	-0.14284165	-1.83645	-0.6989125	-0.59894997	-0.04991221	-1.2150934	-1.1788709
374	-1.7945143	0.9007405	0.6065332	0.58915603	-0.79006326	-0.16737007	-0.586025	-1.762475	-0.013612499	-0.8690796	-0.051939864	0.5333181
375	-1.8379687	0.9486831	0.60535526	0.52675444	-0.83710814	-0.1452491	0.73149997	0.077825	1.3517625	-0.86998075	0.6757473	0.6086589
376	-1.8481333	0.9774095	0.5996325	0.50995314	-0.8494635	-0.1329534	0.22715	0.432575	0.8930625	-0.6129042	0.45619136	0.39269346
377	-1.820873	1.0438604	0.5849398	0.45708844	-0.87974596	-0.12819637	-0.2124375	-0.4393125	1.2027125	-0.4714615	-0.65216535	0.45163676
378	-1.8428997	1.0630573	0.607547	0.43113184	-0.8918487	-0.13434517	0.4090625	-1.4629999	1.2815	-0.1997404	-0.7333348	0.42384055
379	-1.8714257	1.0879393	0.6219553	0.40640816	-0.90459067	-0.12595773	1.8543249	-1.7466625	1.00485	0.021007763	-0.27114332	0.37427577
380	-1.8845373	1.1162469	0.59816974	0.38719726	-0.91869533	-0.07344943	3.7305124	-0.5575625	0.97185	0.025341002	0.14458217	0.24948919
381	-1.6395854	1.1805376	0.2930947	0.34874043	-0.935361	0.05289047	2.8364875	1.001	1.2868625	0.08459292	0.13271573	-0.3423859
382	-1.4804906	1.2006224	0.1203593	0.33198905	-0.9388872	0.08712701	0.9634625	1.1957	0.6941	0.28860727	0.1301257	-0.5406438
383	-1.3529708	1.2138643	0.01001128	0.33135337	-0.9385971	0.09250711	0.1079375	0.2222	0.02255	0.21746926	0.19670105	-0.24969365
384	-1.3189896	1.2154522	-0.01117598	0.3318811	-0.9377001	0.099452674	0.4899125	0.1144	0.0523875	0.022354377	0.18529944	0.058452528
385	-1.3045691	1.2133588	-0.023550585	0.32694733	-0.9373253	0.11766068	0.9741875	0.324775	0.355575	-0.015739392	0.104802385	0.0797858
386	-1.2589883	1.2120872	-0.06832385	0.31875336	-0.93686366	0.14142127	1.1358875	0.5823125	0.41305	0.013050926	0.07825505	-0.023485504
387	-1.190732	1.2116404	-0.1324532	0.3073621	-0.93665904	0.16587956	1.0635625	0.855525	0.5418875	-0.029793305	0.06785164	-0.1258184
388	-1.114904	1.2112451	-0.198813	0.29358885	-0.9390788	0.1767879	0.8666625	0.7352125	0.6397875	0.0015181989	-0.0142393	-0.1879041
389	-1.0653516	1.2180262	-0.2352098	0.27999905	-0.9399162	0.19358501	0.8646	0.3091	0.748275	0.12478687	-0.07537429	-0.14210182
390	-1.0015296	1.2207531	-0.29149035	0.26853716	-0.9397029	0.21015154	1.001825	0.0935	0.8111125	0.19996434	0.0044276346	-0.11249098
391	-0.94334537	1.2210413	-0.35006645	0.26230648	-0.9385803	0.22266428	0.905025	0.111237496	0.7558375	0.24523173	0.09902366	-0.20584472
392	-0.90145856	1.218266	-0.3955091	0.2654201	-0.9376333	0.22296394	0.51975	0.2369125	0.58025	0.3077756	0.13059966	-0.31073153
393	-0.90075165	1.215041	-0.3981154	0.2614954	-0.93834376	0.22460733	0.0664125	0.0851125	0.2715625	0.36541587	0.037732158	-0.3209376
394	-0.88162285	1.2169712	-0.41509157	0.2626495	-0.93887097	0.22102882	-0.0900625	-0.3953125	0.032175	0.3115554	-0.07519639	-0.2115487
395	-0.90539336	1.219762	-0.4043349	0.27139658	-0.9392274	0.20859817	-0.13585	-0.4268	-0.0818125	0.14634041	-0.18451877	-0.19881223
396	-0.9278781	1.2201772	-0.39412594	0.27376735	-0.94068223	0.19871028	-0.6615125	-0.064625	-0.0732875	0.09462714	-0.27899668	-0.33245644
397	-0.95127416	1.2227755	-0.37521285	0.27815482	-0.9441246	0.17485957	-1.4298625	-0.388025	-0.262625	0.23449045	-0.44475916	-0.3378565
398	-1.1056952	1.2394198	-0.22628327	0.31525952	-0.9435482	0.098211534	-2.0928874	-1.2056	-1.390675	0.6444805	-0.1469717	-0.2566213
399	-1.2433938	1.2348162	-0.09970046	0.35206497	-0.93482625	0.03830936	-2.6345	-2.4952126	-1.8951625	0.4220482	-0.07118299	-0.18907389
400	-1.4247736	1.2129309	0.058927014	0.38602895	-0.9213212	-0.038291667	-2.8452876	-3.8883624	-1.7334625	-0.046686437	-0.30273083	0.20231307
401	-1.6279808	1.17794	0.21012354	0.40579972	-0.90534836	-0.12242498	-3.1708875	-3.243625	-1.21935	-0.21609022	-0.59342843	0.5186482
402	-1.826155	1.1385243	0.34198293	0.41886443	-0.8874356	-0.1905981	-3.119875	0.3111625	-0.771375	-0.2074424	-0.95313007	0.82342684
403	-1.9807816	1.0973278	0.4658309	0.44228813	-0.87128276	-0.21110487	-2.0046124	3.7686	-0.7682125	-0.32608017	-0.9912097	1.005799
404	-1.9759108	1.0342014	0.59528327	0.4960462	-0.85228753	-0.16389367	-0.24653749	2.9940624	-1.148125	-0.55598503	-0.13375229	-0.1695467
405	-1.9100286	1.021582	0.6045641	0.5137187	-0.84101737	-0.16763039	-1.139325	0.3928375	-0.8107	-0.46417743	-0.11300408	-0.5390975
406	-1.885303	1.0001518	0.619159	0.521312	-0.83060676	-0.19401997	-1.3564374	-0.6444625	-0.56815	-0.37238234	-0.001916195	0.08250622
407	-1.9189298	0.9805058	0.65513444	0.52675074	-0.8213527	-0.21732655	-0.94985	-0.56595	-0.4882625	-0.3019801	0.1055576	0.47614914
408	-1.9570255	0.9630842	0.6867253	0.5352343	-0.8109604	-0.23491387	-0.7189875	-0.5262125	-0.8001125	-0.12269603	0.20800933	0.40749797
409	-1.9944009	0.92251736	0.7097051	0.57195985	-0.77943534	-0.25428322	-0.2677125	-0.0279125	-1.2310375	-0.08032378	0.31663716	0.33776945
410	-1.9929979	0.89512	0.7056779	0.58649445	-0.7680981	-0.25566915	4.125E-4	-0.04675	-0.71389997	-0.26742718	0.32823572	0.32152542
411	-1.9817111	0.8662825	0.6868848	0.5886224	-0.76738894	-0.25289354	0.5346	-0.3744125	0.0917125	-0.576497	0.16413206	0.3478018
412	-1.9800014	0.86848176	0.6743862	0.5815067	-0.77482957	-0.24659023	0.57722497	-0.1577125	0.5313	-0.76774526	0.15667973	0.30152905
413	-1.9757586	0.8780999	0.66088647	0.5661675	-0.7889606	-0.23730312	0.6389625	0.0275	1.19845	-0.85199314	0.22729392	0.23852637
414	-1.9714669	0.8976056	0.65278184	0.54079795	-0.8102071	-0.22454178	0.724075	0.20019999	1.8082625	-0.7209203	0.23823468	0.17652956
415	-1.9681456	0.93004775	0.6506793	0.5109604	-0.83410347	-0.20617443	0.88577497	0.9141	1.8423625	-0.28343746	0.09974563	-0.051317908
416	-1.9629923	0.97164434	0.65193635	0.49541625	-0.85288286	-0.16269794	1.5945874	2.5669875	1.0857	0.49551648	-0.25251466	-0.32823476
417	-1.9139073	1.0092069	0.63472116	0.49386266	-0.86114204	-0.11769089	1.14015	1.40195	-0.0455125	1.1918712	-0.68890387	-0.562936
418	-1.8254294	1.0319563	0.5811998	0.5107948	-0.8517386	-0.11378818	-1.0786875	0.86913747	-1.22045	1.3880892	-0.8950505	-1.0943617
419	-1.7920219	1.0220397	0.57149535	0.53822607	-0.8334275	-0.122591935	-0.4785	0.2902625	-1.6291	0.5713611	-0.27472237	-0.17568024
420	-1.788351	0.95950913	0.5889832	0.573373	-0.81164694	-0.10858022	-0.2443375	1.2313125	-0.33715	-0.049015213	0.53631055	-0.09275006
421	-1.7504604	0.93706995	0.58848476	0.5860045	-0.8055155	-0.08402928	1.0220375	-0.4978875	-0.346775	0.8270384	-0.891931	0.30890697
422	-1.7216041	0.9330711	0.57046896	0.58517975	-0.80391365	-0.10298006	0.75075	-4.053775	-0.181775	0.1672209	-1.1658113	0.2731177
423	-1.7338045	0.9297481	0.53288674	0.5828038	-0.7999182	-0.14066939	-1.3245375	-0.9909625	-0.346775	-0.33184052	-1.1243478	-0.9527098
424	-1.8365672	0.9159794	0.57222176	0.5754802	-0.80479753	-0.1429703	0.061049998	1.3569875	0.7558375	-1.3341957	0.23262629	0.79598254
425	-1.8237672	0.9271184	0.5772194	0.5625675	-0.81807977	-0.116535135	0.2206875	2.1869376	0.9931625	-1.066436	0.4367342	0.5264281
426	-1.7896953	0.9485208	0.5775475	0.55572814	-0.82575786	-0.09277697	-0.3487	2.0194626	0.4918375	-0.77468836	0.2163848	0.28299102
427	-1.7468835	0.9649827	0.5799548	0.54185456	-0.83579224	-0.084631674	-0.95315	1.3547875	0.6876375	-0.82472914	-0.25299978	0.25599253
428	-1.728068	0.9825002	0.6004882	0.52305454	-0.8466691	-0.09424507	-0.803	-0.2028125	1.242175	-0.6921677	-0.47137368	0.37670684
429	-1.7784182	1.0286635	0.6627875	0.4572727	-0.88281757	-0.10417365	1.7914875	-2.6615875	1.6369375	-0.06522378	-0.22747299	0.3959168
430	-1.7979331	1.06755	0.63820297	0.4272391	-0.90032256	-0.078760296	2.87375	-2.9568	1.3740375	0.08132362	-0.014662183	0.2494025
431	-1.6871369	1.1408882	0.3960899	0.37479612	-0.9264247	0.024136046	2.90785	0.7393375	1.6273125	0.27382773	0.037540838	-0.23136848
432	-1.5550281	1.1745986	0.23437573	0.35393935	-0.932692	0.0642638	0.91781247	1.7400625	0.831325	0.47684044	0.117508516	-0.5375512
433	-1.4196447	1.1908497	0.14632536	0.36037293	-0.92955047	0.073379956	0.1643125	1.6531625	0.0193875	0.055835027	0.13464223	-0.09550534
434	-1.3893487	1.1910549	0.15086865	0.35536355	-0.9301581	0.088541955	0.5548125	0.7781125	0.2140875	-0.02875802	0.00885838	-0.045835532
435	-1.3469212	1.1924186	0.1345032	0.3468071	-0.9320488	0.10162184	0.7602375	-0.2028125	0.51094997	-0.07238813	0.03490817	-0.05402245
436	-1.3051265	1.1967614	0.09729293	0.3356168	-0.9346219	0.114718944	0.9497125	-0.5995	0.6950625	-0.09341495	0.08558522	-0.03857216
437	-1.2628295	1.2037717	0.043322597	0.32156244	-0.9374616	0.13069183	1.1295625	-0.5555	0.88673747	-0.091394246	0.10840963	-0.02885696
438	-1.2108113	1.2118737	-0.025539149	0.3052991	-0.9396913	0.15195405	1.37115	-0.4246	0.9686875	-0.0101920655	0.0672143	-0.024736935
439	-1.1405098	1.2193701	-0.11132484	0.29001683	-0.9406092	0.17453323	1.4328874	-0.3356375	0.9909625	0.08226146	-0.020048255	-0.08645984
440	-1.062651	1.2231907	-0.20343703	0.2751181	-0.94116795	0.19449963	1.0965625	-0.0886875	0.880275	0.20194612	-0.07881676	-0.251992
441	-0.9859948	1.2253526	-0.29179677	0.26350302	-0.9423102	0.20478085	0.349525	0.4640625	0.594	0.3373074	-0.013958933	-0.4295515
442	-0.9338604	1.2318363	-0.33835912	0.2793934	-0.94102275	0.18903098	-0.2762375	-0.58795	-0.051975	0.30215093	0.14856102	-0.056508046
443	-0.9801141	1.2249644	-0.29272193	0.29141197	-0.9381748	0.18499891	0.1005125	-1.19405	-0.1923625	0.21470423	0.07589653	0.09206532
444	-1.0091276	1.2182598	-0.27931398	0.3034647	-0.9347966	0.18270825	0.3091	-1.17315	-0.379775	0.140572	-0.05021868	0.031359028
445	-1.0525595	1.2002563	-0.28110722	0.32620227	-0.92796504	0.17829871	-0.1848	-0.1032625	-0.6351125	0.106412426	-0.38201964	-0.10235071
446	-1.073453	1.1910249	-0.26826409	0.33878383	-0.92476773	0.17131114	-0.6062375	0.3133625	-0.7255875	0.21126206	-0.49530876	-0.18120411
447	-1.1024919	1.1819162	-0.23544975	0.35270163	-0.9224712	0.15480827	-1.2724249	0.2734875	-0.8639125	0.35719132	-0.5733544	-0.2992578
448	-1.2334788	1.1680658	-0.08290704	0.400458	-0.9128017	0.07578293	-2.528075	-0.3848625	-1.489675	0.10810469	-0.13796283	-0.18414685
449	-1.3575457	1.1535285	0.049178086	0.42693636	-0.90365666	0.021151647	-2.6367	-1.2034	-1.4311	-0.19360302	0.085109256	0.057946213
450	-1.6189882	1.1086576	0.2941424	0.47702667	-0.87467176	-0.081926785	-2.2248874	-0.1651375	-1.5758874	-0.35623157	-0.6824078	0.43197265
451	-1.7790112	1.0377471	0.461198	0.50005907	-0.85889345	-0.107517466	-1.726725	1.083775	-1.0747	-0.6071997	-0.8495622	0.37530032
452	-1.7790112	1.0377471	0.461198	0.5160708	-0.8476609	-0.120247826	-1.632125	1.5651625	-0.689425	-0.7005815	-0.57761437	0.0029236653
453	-1.7989824	1.0142387	0.51535916	0.51366556	-0.8467908	-0.1356842	-1.710775	1.211375	-0.590425	-0.56657076	-0.16585445	-0.0056001875
454	-1.8475573	0.9956312	0.6296478	0.5334541	-0.8290937	-0.16537125	-1.7065125	0.897325	-0.5479375	-0.23804128	-0.04001942	0.3538575
455	-1.8666646	0.98000085	0.67743254	0.5468515	-0.81805044	-0.17625009	-1.481975	0.70895	-0.7489625	-0.08426743	-0.004380777	0.31926233
456	-1.8908014	0.9375587	0.74762535	0.5803271	-0.78965306	-0.19744904	-0.7360375	0.2253625	-0.964975	-0.032009043	0.16988239	0.14841235
457	-1.9034368	0.89254224	0.7757546	0.59832543	-0.7719535	-0.21310042	-0.1560625	-0.441375	-0.264825	-0.4425609	0.17481287	0.20362028
458	-1.9203775	0.876959	0.7787716	0.59848356	-0.7702769	-0.21865092	0.19085	-0.614075	-0.1467125	-0.5079637	0.22542983	0.30355918
459	-1.924622	0.8772565	0.7693915	0.5913227	-0.776877	-0.21474852	0.5357	-0.0760375	0.438625	-0.5869344	0.31521034	0.35531428
460	-1.9220549	0.8840464	0.7585057	0.5804295	-0.78808725	-0.20331559	0.7921375	0.043175	0.8611625	-0.55454266	0.30256736	0.2784379
461	-1.8990529	0.9252725	0.7286464	0.5363147	-0.8266575	-0.16828826	1.518	-0.06985	1.5657125	-0.2933942	0.14970033	0.012829544
462	-1.8423308	0.9993374	0.66211396	0.5054977	-0.8571528	-0.09528243	0.627275	1.5850999	0.194975	1.0228356	-0.66527843	-1.1133873
463	-1.7721058	1.0258024	0.60989153	0.5197239	-0.8482926	-0.098001435	-1.1669625	0.3865125	-1.12035	1.3152455	-0.98687553	-1.2393074
464	-1.7536026	1.0169685	0.61896753	0.5403625	-0.8336168	-0.11139188	-0.1783375	-0.507375	-1.2428625	0.6019464	-0.32938012	-0.07821058
465	-1.774039	0.9894807	0.6412597	0.5579438	-0.82223743	-0.109275855	0.3207875	0.1216875	-0.8426	0.036551584	0.32304782	0.10907708
466	-1.7702175	0.96673393	0.6281877	0.56823593	-0.8160011	-0.10279512	-0.0581625	0.391875	-0.3744125	0.062146317	0.4881724	-0.10026299
467	-1.7484846	0.9456998	0.6153374	0.57977146	-0.80924016	-0.09117188	0.9081875	-0.4477	-0.2871	0.49535087	-0.87088215	0.15100369
468	-1.733042	0.9411612	0.596942	0.5821877	-0.80633163	-0.10101414	0.692175	-3.0541499	-0.459525	0.20660435	-0.9773534	0.29723737
469	-1.7346227	0.9372578	0.5618564	0.5859628	-0.7987268	-0.13416463	-1.318075	-0.89155	-0.6914875	-0.13998422	-0.9021906	-0.6016152
470	-1.785939	0.92763186	0.55648315	0.59768116	-0.78774256	-0.14682081	-1.0021	1.590325	-0.5181	-0.7956475	-0.4663859	-0.46877554
471	-1.8160577	0.9084321	0.6027478	0.5809655	-0.8064731	-0.10675938	0.3037375	1.9870125	0.3546125	-1.2511032	0.25865966	0.6629214
472	-1.7124656	0.9480693	0.5800663	0.56271106	-0.82524896	-0.040468752	-0.0209	2.1660376	0.7695875	-0.8375275	0.41148752	0.3705452
473	-1.6550648	0.9644921	0.5686078	0.5355728	-0.84390247	-0.017538754	-0.36245	1.3025374	1.1378125	-0.82843214	-0.10522595	0.41253874
474	-1.6091965	0.99665564	0.56466514	0.510014	-0.8594811	-0.02224919	-0.076175	-1.06425	1.5752	-0.6325369	-0.5740511	0.41235623
475	-1.6397533	1.060097	0.56675524	0.43993324	-0.8970976	-0.031497747	2.5353625	-4.015	1.7837875	0.035097353	-0.26345286	0.23975462
476	-1.6134309	1.1367216	0.36819914	0.39577585	-0.9179421	-0.007769553	2.8919	-1.4515874	1.647525	0.118597195	0.22538857	-0.49845365
477	-1.620206	1.152798	0.30273038	0.37196854	-0.92776185	0.014634557	0.8091875	-0.29479998	1.094225	0.37676233	0.12918389	-0.70209634
478	-1.5457945	1.1819539	0.20140249	0.36647254	-0.92999244	0.0113733895	-0.3337125	-0.0551375	0.1907125	0.397136	0.10655206	-0.21515016
479	-1.5407755	1.192363	0.19148785	0.37009582	-0.92859167	0.007990669	-0.29755	0.3290375	-0.122237496	0.12184606	0.16375987	0.15775856
480	-1.5429465	1.1885681	0.2076522	0.36550823	-0.92976993	0.0353364	0.7613375	1.124475	0.3216125	-0.1374807	0.13955584	0.2903517
481	-1.4953902	1.1915789	0.17695726	0.35215297	-0.9330707	0.06844197	1.2508374	0.86707497	0.61105	-0.1519542	0.04641934	0.2220779
482	-1.3053714	1.212356	0.012277463	0.31539908	-0.939156	0.13351803	1.89255	0.075625	0.9867	-0.035169728	-0.102327205	-0.14830396
483	-1.2062607	1.2189841	-0.092095695	0.29594755	-0.9410193	0.16191024	1.63075	-0.1137125	1.1133375	0.062462237	-0.057956275	-0.30880624
484	-1.1037062	1.2246406	-0.20182036	0.28310165	-0.9428815	0.17362379	1.1210375	-0.2550625	0.9920625	0.16318278	0.042988546	-0.3553822
485	-1.025829	1.2326064	-0.3003013	0.27655646	-0.9444304	0.17573993	0.26015	-0.138875	0.5174125	0.3059053	0.103451885	-0.2783852
486	-1.017776	1.234827	-0.3144472	0.2771709	-0.9445605	0.17406566	0.0462	-0.13365	0.1992375	0.31315023	0.06891828	-0.17590053
487	-1.0179936	1.2360195	-0.31781447	0.28216708	-0.9437167	0.17057946	-0.059125	-0.4676375	0.0086624995	0.27563107	0.051468953	-0.07710851
488	-1.0304214	1.2339802	-0.30981404	0.28805974	-0.9428815	0.16526662	-0.00275	-0.9301875	-0.10945	0.29614517	-0.04416737	0.0043511144
489	-1.0507288	1.2321073	-0.30255562	0.29567295	-0.9409147	0.16301653	0.1984125	-0.690525	-0.2871	0.31074908	-0.23381011	0.020056859
490	-1.0701319	1.2275056	-0.3009504	0.30453756	-0.9379337	0.1638742	0.1079375	-0.2080375	-0.43505	0.2759976	-0.40354946	-0.062345143
491	-1.0805951	1.2192194	-0.30088612	0.31431186	-0.9351597	0.1612501	-0.373175	0.227425	-0.5787375	0.34359336	-0.4859413	-0.20631127
492	-1.0958358	1.2107931	-0.28535217	0.32931384	-0.93259186	0.14540246	-1.221275	0.0243375	-0.9788625	0.48464644	-0.44213292	-0.37364405
493	-1.1410204	1.203709	-0.23253478	0.35524485	-0.9280429	0.10887796	-2.0747375	-0.7847125	-1.4876125	0.4498469	-0.3841895	-0.3649483
494	-1.3967059	1.1729132	0.012206426	0.4146104	-0.9095906	-0.0077618663	-2.68345	-2.1863875	-1.4876125	-0.23326482	-0.11721367	0.1535264
495	-1.7078246	1.1210496	0.2639265	0.45109138	-0.88211554	-0.13306299	-2.68675	-0.181775	-1.0278125	-0.47789565	-0.76314443	0.6061517
496	-1.8374785	1.0879593	0.37562594	0.47097293	-0.86709523	-0.16014934	-2.1162624	2.39745	-0.803275	-0.67280775	-0.9138375	0.7448588
497	-1.897404	1.0554104	0.46279866	0.49212947	-0.8556855	-0.15788788	-1.5607625	3.3290124	-0.6947875	-0.8033374	-0.52443683	0.3327044
498	-1.8892392	1.0313693	0.52265793	0.4881631	-0.8547582	-0.1743624	-1.7204	1.7191625	-0.8129	-0.5781784	-0.07215309	-0.20617276
499	-1.9127989	1.0305871	0.59814316	0.5022703	-0.8420974	-0.19471502	-1.942875	1.1517	-0.7915875	-0.36415103	-0.05657233	-0.018847669
500	-1.9355934	1.007083	0.65552175	0.51734537	-0.8294571	-0.20897883	-1.728925	1.1182874	-0.7830625	-0.26199368	-0.06698021	0.3161195
501	-1.9680003	0.93581605	0.76083845	0.54946995	-0.8021293	-0.23235436	-0.9084625	-0.1106875	-0.985325	-0.010937798	0.13006508	0.3324614
502	-1.9815295	0.8812366	0.76890635	0.5854382	-0.769084	-0.25512618	-0.468875	-0.1148125	-0.9299125	-0.05719659	0.16460384	0.23443809
503	-1.9815295	0.8812366	0.76890635	0.59251475	-0.7616985	-0.2608811	-0.086899996	-0.33261248	-0.314875	-0.35867685	0.14304404	0.32265478
504	-1.9848393	0.8661559	0.76930004	0.5905349	-0.7619686	-0.26455548	0.365475	-0.7209125	0.0023375	-0.5397704	0.13923158	0.37709373
505	-1.9946086	0.869893	0.749929	0.5777336	-0.7754788	-0.25332552	0.887975	-0.084425	0.5302	-0.7177948	0.28557053	0.40756097
506	-1.9880862	0.8818841	0.7307697	0.5647373	-0.7904093	-0.23588586	1.016675	0.292325	1.0888625	-0.7457771	0.31681603	0.3359929
507	-1.9518616	0.93544334	0.6949305	0.5435913	-0.8112385	-0.21381637	1.196525	0.3311	1.5709375	-0.6460378	0.30298167	0.25896928
508	-1.9518616	0.93544334	0.6949305	0.5159886	-0.83483267	-0.19007263	1.353	0.130075	1.75615	-0.36878675	0.24308953	0.117901385
509	-1.8249453	1.0495939	0.59621817	0.48009762	-0.8692577	-0.114953466	0.91781247	2.1179125	0.3939375	1.078725	-0.58262306	-0.97943497
510	-1.8077719	0.9991531	0.63371956	0.53154725	-0.8367714	-0.12879491	-0.4987125	-0.2729375	-1.718475	0.8834374	-0.67657727	-0.18170968
511	-1.802894	0.9667486	0.6225614	0.55644774	-0.82029384	-0.12961912	0.0738375	-0.107525	-1.2428625	0.023567567	0.05862715	0.07935919
512	-1.8046046	0.9378052	0.6249934	0.57491267	-0.80635816	-0.13630442	-0.2380125	0.2431	-0.1530375	-0.21731327	0.18169458	0.18687017
513	-1.7946068	0.9390887	0.6257721	0.56604546	-0.8154701	-0.11797647	0.8762875	-1.3751374	0.25025	0.3819667	-0.83264923	0.16945966
514	-1.7762922	0.9502657	0.60520065	0.5641164	-0.8144115	-0.133507	-0.469975	-1.1187	-0.37015	0.26198453	-0.65236217	-0.6017682
515	-1.8274043	0.93869334	0.61542743	0.56348056	-0.8130667	-0.14397757	-0.092125	0.1500125	0.22893749	-0.9105754	0.1080667	0.68965036
516	-1.8218362	0.94726443	0.6165417	0.54410607	-0.82890654	-0.12719798	0.4824875	0.7885625	1.1198	-1.0217819	0.25990045	0.64543957
517	-1.8071647	0.9700327	0.6078184	0.52764744	-0.84295183	-0.10167499	0.43147498	1.66045	1.0260249	-0.72703576	0.16282947	0.3606964
518	-1.7287468	1.0308323	0.5843745	0.48845023	-0.86987525	-0.06364591	-0.00165	0.75295	0.879175	-0.5282056	-0.3410268	0.32338598
519	-1.7044903	1.0496563	0.587223	0.46575224	-0.88257605	-0.058750346	0.692175	-1.0297375	1.3816	-0.33200607	-0.38347903	0.30014178
520	-1.6973528	1.073132	0.5819904	0.4360277	-0.8981095	-0.050953504	1.7488625	-2.6082375	1.486925	-0.037143912	-0.22054501	0.27430212
521	-1.6597439	1.1353623	0.4372932	0.39143395	-0.91980827	-0.007067531	2.851475	-2.3863125	1.192125	0.06483517	0.22450241	-0.067550205
522	-1.6123167	1.1607703	0.31465283	0.3748582	-0.9265834	0.015547388	2.02345	-0.5262125	1.2485	0.13686961	0.16317362	-0.3660061
523	-1.5549368	1.1790243	0.2136603	0.3599791	-0.9319901	0.033564307	0.5368	0.308	0.6653625	0.30434814	0.021179736	-0.32061324
524	-1.4902542	1.1966637	0.14050208	0.35853854	-0.93242085	0.036859676	-0.0144375	0.2954875	0.1502875	0.21465719	0.051381074	-0.05479545
525	-1.4730798	1.2002201	0.12902501	0.357025	-0.93279845	0.041680522	0.3388	-0.086625	0.1353	-0.014318578	0.1664376	0.14700449
526	-1.434271	1.2040524	0.088318504	0.3448012	-0.9353432	0.074581414	1.0912	0.4263875	0.4503125	-0.11238529	0.15899763	0.16781922
527	-1.3788183	1.208201	0.031389486	0.33210373	-0.937129	0.103985965	1.3998874	0.55935	0.5962	-0.08184377	0.021639753	0.048307613
528	-1.2942028	1.2136765	-0.047531035	0.31628862	-0.9388077	0.13385956	1.5637875	0.5823125	0.815375	-0.026074558	-0.07434207	-0.15985344
529	-1.2011883	1.2186792	-0.13472359	0.30173612	-0.9414763	0.14796883	1.134925	0.259875	0.90585	0.06228528	0.011308088	-0.28680676
530	-1.077873	1.2313865	-0.25594673	0.2810794	-0.9440765	0.17038538	0.7049625	-0.1043625	0.816475	0.15031205	0.037149843	-0.11666979
531	-1.0438606	1.233743	-0.29466346	0.26303926	-0.9461244	0.1870196	0.6122875	-0.0875875	0.765325	0.2291167	0.042148903	-0.12351807
532	-0.9464689	1.2375004	-0.4101957	0.2636286	-0.94390994	0.19710626	0.2685375	-0.485375	0.1375	0.29936835	-0.05823071	-0.16663225
533	-0.93438685	1.2353858	-0.43164188	0.26592767	-0.9432422	0.19721511	0.1452	-0.4906	-0.0158125	0.27260447	-0.17246115	-0.113728866
534	-0.9411831	1.231107	-0.4429249	0.2690004	-0.94242275	0.19696522	-0.0240625	0.0160875	-0.1285625	0.18849197	-0.29193506	-0.16210283
535	-0.9411831	1.231107	-0.4429249	0.27159697	-0.94298196	0.19062355	-0.649825	0.423225	-0.2286625	0.18834184	-0.3983025	-0.3140639
536	-0.9551791	1.231369	-0.4241991	0.2772478	-0.9445174	0.17417721	-1.18195	0.520575	-0.4904625	0.41704887	-0.4150086	-0.36480412
537	-0.9979577	1.2357862	-0.3684858	0.29241914	-0.94457453	0.14692579	-1.5937625	-0.26455	-0.96085	0.5971833	-0.26510444	-0.31359246
538	-1.0805538	1.2375554	-0.2749019	0.31885248	-0.941522	0.105765276	-2.007775	-1.308175	-1.3567125	0.5780894	-0.15246889	-0.22727905
539	-1.2141951	1.230674	-0.14828081	0.35375044	-0.93360466	0.050596833	-2.4099624	-2.1278124	-1.7386875	0.31413952	-0.063444324	-0.092492856
540	-1.3857632	1.2112384	5.962828E-5	0.38353086	-0.92303544	-0.0150613	-2.71645	-2.9264126	-1.604625	-0.12114553	-0.0798239	0.13738546
541	-1.5649593	1.1842394	0.14003304	0.40461308	-0.9099157	-0.087514244	-2.7696624	-2.6741	-1.2417625	-0.3365244	-0.37031367	0.44684145
542	-1.8848039	1.115794	0.382776	0.44378883	-0.8788422	-0.17322142	-1.957725	2.5942125	-0.9128625	-0.50281024	-0.9687572	0.7936037
543	-1.9433448	1.0808957	0.4679705	0.47140867	-0.86653703	-0.16187854	-0.98395	3.990525	-0.99165	-0.6173873	-0.49279022	0.399692
544	-1.8790911	1.0361038	0.550487	0.5024477	-0.84818137	-0.16568543	-1.5778124	1.4678125	-1.0417	-0.31937432	-0.055794124	-0.20851947
545	-1.9023024	0.9958967	0.6494029	0.52877325	-0.8256278	-0.1950771	-1.0723625	0.17613749	-0.7000125	-0.2832075	0.02827304	0.44675907
546	-1.9201144	0.97597295	0.68315995	0.5433308	-0.8128787	-0.20817511	-0.7084	-0.19855	-1.0426625	-0.06392714	0.16008055	0.3480375
547	-1.9362425	0.9247545	0.7002945	0.59398365	-0.77252895	-0.22293426	-0.36781248	-0.0342375	-1.5195125	0.014884853	0.2122843	0.16911164
548	-1.9314108	0.8900404	0.6906746	0.6080854	-0.7598813	-0.22831883	-0.1475375	-0.28861248	-0.5946875	-0.35589886	0.20647155	0.23932801
549	-1.9294989	0.8656094	0.6864428	0.60769546	-0.7586571	-0.23337248	0.35475	-0.777425	0.0066	-0.51544774	0.2245134	0.33153763
550	-1.9360343	0.86000675	0.6814126	0.6013206	-0.7636971	-0.23344731	0.65174997	-0.6612375	0.291775	-0.6013206	0.21487443	0.34526688
551	-1.9413455	0.8659088	0.6679198	0.591449	-0.7734112	-0.22658367	0.73039997	-0.13365	0.6972625	-0.6890025	0.2637323	0.32077327
552	-1.9392246	0.8790791	0.65234673	0.57564145	-0.7893701	-0.21177633	0.8316	0.3383875	1.287825	-0.6644335	0.27672487	0.25784668
553	-1.9278072	0.90175605	0.63942385	0.5500381	-0.8118283	-0.19419132	0.8581375	0.2024	1.8742625	-0.5498394	0.24496286	0.17890081
554	-1.9131668	0.93649745	0.6295151	0.5160298	-0.83626485	-0.18355417	0.61654997	-0.2875125	1.977525	-0.23671782	0.14543912	-0.03214919
555	-1.9112508	0.9796226	0.6266867	0.49370044	-0.8529528	-0.16747749	0.8358625	1.68135	1.0632875	0.47041273	-0.16192494	-0.40642157
556	-1.9106816	1.0148149	0.6276815	0.49718606	-0.8588425	-0.12046906	1.0146124	2.7072375	-0.215875	1.2051535	-0.4672584	-0.81183976
557	-1.7758784	1.0217015	0.5646796	0.53235394	-0.83709997	-0.12320875	-0.226325	-1.0558625	-1.162975	0.70250845	-0.30907738	-0.2665925
558	-1.7941262	0.9975169	0.5578409	0.5509283	-0.82385343	-0.1306159	-0.2624875	0.292325	-1.0863875	0.08229801	-0.10581021	-0.21525566
559	-1.7991508	0.9533677	0.56146944	0.56722254	-0.81308186	-0.1283501	-0.06765	0.432575	0.160875	-0.0552959	-0.1585848	0.4673868
560	-1.7955825	0.9483024	0.5633042	0.56273913	-0.81882894	-0.110278785	0.7858125	0.5938625	0.4514125	0.112077385	-0.79880106	0.38194543
561	-1.7729799	0.9559775	0.55531305	0.5568499	-0.82310146	-0.10834724	0.2718375	-1.176175	0.0364375	0.169144	-1.0299108	-0.3036864
562	-1.7598246	0.9660383	0.5307987	0.56483495	-0.814888	-0.1274213	-1.11705	-0.408925	-0.8107	1.03873695E-4	-0.8569775	-1.0453615
563	-1.7849581	0.95732194	0.5422096	0.56174433	-0.8141934	-0.14439371	-0.6529875	-0.9521875	-0.2190375	-0.6622489	-0.097427405	0.3848677
564	-1.8143089	0.9528198	0.5622546	0.5454447	-0.825202	-0.14439328	-0.0836	0.113299996	0.9931625	-1.0192521	0.35842833	0.7723291
565	-1.8284922	0.96548593	0.56608015	0.5251095	-0.8403975	-0.13156253	0.1643125	1.6091624	1.42835	-0.8135958	0.44417423	0.45552278
566	-1.8236678	0.9905331	0.5757514	0.5091765	-0.852957	-0.11189614	-0.1975875	1.8238	1.0176375	-0.49705115	0.17110686	0.30475545
567	-1.7936997	1.0165511	0.58369714	0.49359667	-0.86331505	-0.10181525	-0.2613875	0.7330125	0.8600625	-0.44822967	-0.29070637	0.3952862
568	-1.7750236	1.0375676	0.5970692	0.47391263	-0.87404954	-0.103738874	0.152625	-0.9428375	1.2038125	-0.37727657	-0.5699871	0.447271
569	-1.7814355	1.0571656	0.6085723	0.4451312	-0.8885725	-0.10776825	1.1677876	-2.6123624	1.36125	-0.13340338	-0.36361402	0.42000067
570	-1.803991	1.0860264	0.5971914	0.4165048	-0.90406144	-0.09226937	2.2809875	-3.42045	1.1719126	0.012960054	-0.016534923	0.30928773
571	-1.7934092	1.1208661	0.52035326	0.3910579	-0.91753167	-0.06727805	3.0908625	-3.0949874	1.1165	-0.01755638	0.20958062	0.13292025
572	-1.7595804	1.1535963	0.40766382	0.36657554	-0.92976147	-0.021975638	3.2962875	-1.4086875	1.29635	-0.031407334	0.2151896	-0.099324055
573	-1.6653831	1.1862264	0.25054353	0.3471598	-0.9373559	0.012707302	1.99155	0.0191125	1.1070125	0.12276374	0.0995424	-0.4179061
574	-1.50564	1.2225536	0.063052736	0.3370111	-0.9408161	0.024610098	-0.094325	0.2190375	0.054449998	0.11875345	0.15499039	-0.12808104
575	-1.499947	1.2251801	0.0616963	0.33464158	-0.941557	0.028334236	0.2195875	0.20019999	0.225775	-0.039733317	0.12932456	0.07706332
576	-1.4623672	1.2327343	0.029654594	0.31702706	-0.94635123	0.056835905	0.820875	0.3614875	0.552475	-0.0040759854	0.10557135	0.1138063
577	-1.4108341	1.2403008	-0.022615895	0.30426145	-0.9486829	0.08211615	1.0582	0.9224875	0.699325	-0.011600899	0.08885104	0.11462698
578	-1.3323245	1.2476429	-0.09202637	0.28688633	-0.95135486	0.10925804	1.213575	0.5110875	0.89196247	-0.017161569	0.036171377	0.009396389
579	-1.2344381	1.2562772	-0.17769583	0.27060848	-0.95314914	0.13264464	1.3519	-0.06985	1.00485	0.07556889	-0.006988459	-0.07137552
580	-1.1434269	1.2627141	-0.26798344	0.25675833	-0.9534542	0.15594019	1.4733125	-0.4926625	1.0313874	0.18096338	0.017475571	-0.093447834
581	-1.0536512	1.2647555	-0.36836758	0.25243807	-0.95113707	0.17587131	1.460525	-0.5691125	0.8930625	0.26947325	0.08518907	-0.13703339
582	-0.9885095	1.2583122	-0.4512584	0.24520065	-0.9489949	0.19647664	1.196525	0.0935	0.569525	0.36386666	0.058367975	-0.28210357
583	-0.9178533	1.2525351	-0.5349333	0.2405979	-0.9473921	0.209471	0.365475	0.455675	0.1343375	0.40272015	-0.03762318	-0.4437218
584	-0.8645856	1.2467409	-0.58576757	0.24146129	-0.94795614	0.20589511	-0.3784	0.111237496	-0.0594	0.32439497	-0.101783976	-0.3703141
585	-0.86281794	1.2468125	-0.58114654	0.24511373	-0.9490744	0.19619963	-0.44233748	-0.0394625	-0.1689875	0.2934184	-0.17314273	-0.18274397
586	-0.89119107	1.2506074	-0.5511779	0.25068104	-0.9493135	0.18782923	-0.422125	-0.0666875	-0.278575	0.25860032	-0.2698455	-0.15337968
587	-0.9221831	1.2519181	-0.51976687	0.25741976	-0.9498216	0.17575869	-0.7497875	-0.0133375	-0.3488375	0.3169992	-0.41734973	-0.22724186
588	-0.9616439	1.2529724	-0.47983846	0.26828837	-0.9505353	0.15434125	-1.2989625	-0.257125	-0.688325	0.5610694	-0.4444647	-0.30979997
589	-1.0272789	1.2555755	-0.41174552	0.29188746	-0.94876283	0.11818668	-1.8129375	-1.30295	-1.3129874	0.7144275	-0.3321699	-0.26853836
590	-1.1487468	1.2526319	-0.29737276	0.32742706	-0.9421898	0.06623503	-2.3131626	-2.1632874	-1.817475	0.52700716	-0.20134231	-0.15553166
591	-1.3244756	1.2361037	-0.14686705	0.3649953	-0.93063986	-0.0022674205	-2.84955	-3.0206	-1.8601	0.07027991	-0.15916133	0.020310232
592	-1.5262322	1.2056843	0.014703866	0.39112195	-0.9163197	-0.081848614	-3.1145124	-3.1640124	-1.45145	-0.26370606	-0.32782403	0.33210856
593	-1.7300137	1.1690841	0.16563489	0.40814337	-0.8993303	-0.1547305	-3.053875	-1.2401125	-1.095875	-0.3090608	-0.7090336	0.65564793
594	-1.9019227	1.1287559	0.29662558	0.42680612	-0.88194853	-0.1982933	-2.545125	1.7065125	-0.821425	-0.42241776	-1.0025622	0.86699367
595	-1.9965048	1.0890844	0.40006325	0.45271802	-0.8664927	-0.20869677	-1.796025	3.2201126	-0.8809625	-0.57687706	-0.68569386	0.7624123
596	-2.008644	1.0558994	0.4703428	0.46890044	-0.8613359	-0.19377871	-1.0542125	3.0045125	-1.0448625	-0.6241451	-0.14936756	0.36422217
597	-1.9736285	1.0447329	0.5041598	0.4773057	-0.8536809	-0.20669968	-1.2084875	1.8227	-1.0704376	-0.53368187	0.009231392	-0.34814742
598	-1.9836527	1.0303143	0.56311417	0.48718873	-0.84234405	-0.22895591	-1.629925	0.77385	-0.94159997	-0.41032326	-0.0423655	-0.18500435
599	-2.0060792	1.0092976	0.6147741	0.5048157	-0.8264514	-0.24790408	-1.44265	0.5729625	-0.92675	-0.33834782	0.030625727	0.32649735
600	-2.0240905	0.98002976	0.6508484	0.52338564	-0.81178695	-0.25765622	-0.8701	0.7005625	-0.94159997	-0.2424529	0.12993675	0.46193755
601	-2.0297048	0.9532418	0.6737863	0.5450146	-0.79713815	-0.25854796	-0.13255	0.172975	-1.3459874	0.024511373	0.29744396	0.41920546
602	-1.9971597	0.89785284	0.65013146	0.5918002	-0.7622425	-0.2609147	-0.2124375	-0.1881	-0.7979125	-0.104751304	0.29598865	0.13767311
603	-1.9863224	0.8706766	0.63496804	0.59248155	-0.75983185	-0.2663423	0.2866875	-0.7429125	-0.0232375	-0.35272622	0.23006123	0.3512506
604	-1.9915932	0.86238295	0.63124216	0.5855402	-0.76524043	-0.266209	0.824175	-0.9145125	0.21725	-0.475953	0.107549325	0.4046341
605	-1.9973261	0.86853325	0.61625683	0.57442504	-0.7756524	-0.260224	0.8688625	-0.507375	0.5908375	-0.6658623	0.087686025	0.32291517
606	-1.9974831	0.88309056	0.595331	0.5597415	-0.78979915	-0.24944766	0.788975	-0.0174625	1.011175	-0.7696345	0.20192453	0.23120606
607	-1.9924556	0.90410304	0.580665	0.5394777	-0.80830824	-0.23434822	0.8518125	0.2222	1.4784	-0.69758165	0.28517368	0.18072437
608	-1.9835868	0.9326663	0.57187957	0.51288104	-0.83011067	-0.21722423	0.9752875	0.1144	1.7072	-0.38352323	0.27985072	0.13720894
609	-1.9743154	0.9694528	0.5650524	0.49159682	-0.8484599	-0.19433536	1.27105	1.0000376	1.3816	0.19973347	0.060187735	-0.08314172
610	-1.9582328	1.0042537	0.552716	0.4809008	-0.86333	-0.1507078	1.494625	1.9305	0.7387875	0.8882124	-0.3678627	-0.39149404
611	-1.8337578	1.0468044	0.48454404	0.5086115	-0.84887886	-0.14154884	-0.59015	-0.4079625	-1.3715625	1.1595843	-0.65570825	-0.61522484
612	-1.8392515	1.0213042	0.50231856	0.5287979	-0.8351986	-0.14877221	0.019524999	-0.39435	-0.9469625	0.23144668	0.016849898	0.04704437
613	-1.8458657	0.993038	0.49798176	0.53838235	-0.8289147	-0.1495412	-0.2167	0.3311	-0.312675	-0.0015780344	0.44370064	-0.123042904
614	-1.843131	0.97895414	0.49288538	0.5480295	-0.8222274	-0.15140356	-0.2156	-0.02695	-0.3573625	0.21905003	0.32008678	0.07800906
615	-1.8400369	0.96730417	0.49705884	0.5536315	-0.81872886	-0.14997402	0.3207875	-0.032175	-0.2924625	0.16777521	-0.45049134	0.3150046
616	-1.8385928	0.9601585	0.49336496	0.5547097	-0.81983685	-0.13957733	0.856075	-0.48221248	0.0055	6.420046E-4	-1.017472	0.24038772
617	-1.8239257	0.9655487	0.4473417	0.5466464	-0.82153934	-0.1599004	-1.1787875	0.6472125	-0.183975	-0.47397053	-0.7150509	-0.9220568
618	-1.8514551	0.9666294	0.45875743	0.5491678	-0.8189345	-0.16455416	-0.78705	1.2260875	-0.116875	-0.761706	-0.026432525	0.034997586
619	-1.8565339	0.96225387	0.5155712	0.5362636	-0.8306864	-0.14730415	-0.18259999	1.4553	0.9164375	-0.74248683	0.35882092	0.46809927
620	-1.8031719	1.0287435	0.5152428	0.4774574	-0.8692414	-0.12558182	-0.36135	-0.6612375	1.2549624	-0.3995828	-0.6036485	0.4402607
621	-1.8194946	1.048143	0.5415552	0.44787985	-0.8830709	-0.13750166	0.495275	-2.1319375	1.4144624	-0.17203888	-0.59562945	0.49051386
622	-1.8592455	1.0750121	0.55840075	0.41899967	-0.8975908	-0.13448705	1.7329125	-2.907575	1.1240625	0.09486886	-0.11627769	0.4295941
623	-1.8807565	1.1064732	0.526712	0.39374712	-0.9123803	-0.108821645	2.8364875	-2.3298	1.156925	0.08372993	0.18516316	0.27232316
624	-1.8562942	1.1399015	0.43725792	0.36782545	-0.9272927	-0.0644211	3.0333874	-1.2494625	1.336775	0.053994127	0.25053427	0.049635172
625	-1.772573	1.1781462	0.30445525	0.34708387	-0.9372387	-0.020816665	2.374625	-0.2352625	1.0388125	0.15556139	0.21369128	-0.133113
626	-1.6615245	1.2091274	0.16500904	0.3374481	-0.9408865	0.013360763	1.395625	0.99165	0.505725	0.15593112	0.1830883	-0.23354426
627	-1.5572735	1.223567	0.059292667	0.33121577	-0.94255936	0.034569077	0.494175	1.3935624	0.3023625	0.046964668	0.13939422	-0.1958382
628	-1.4826945	1.2296618	0.0047519924	0.3240388	-0.9442777	0.05152849	0.3612125	1.6270375	0.34814999	-0.044528108	0.12909424	-0.051727273
629	-1.4287001	1.2346926	-0.020789644	0.31269035	-0.9467985	0.071516156	0.5814875	1.547425	0.5748875	-0.087919705	0.11825104	0.022673441
630	-1.3654963	1.2417448	-0.053394787	0.29724008	-0.94975615	0.094491206	0.8347625	1.2626625	0.7579	-0.054120798	0.12070415	0.009988911
631	-1.2865049	1.2509071	-0.10596277	0.27879232	-0.95251286	0.11962988	1.0901	0.97171247	0.92716247	-0.0029513594	0.11561682	-0.043284316
632	-1.1934204	1.2601117	-0.17975251	0.25970036	-0.95442563	0.14472178	1.279575	0.68915	1.1070125	0.09351066	0.05575592	-0.1112814
633	-1.0941188	1.2668871	-0.26618993	0.23942578	-0.9557008	0.16920061	1.2764125	0.32381248	1.160225	0.23519194	-0.030124927	-0.17715168
634	-0.9869011	1.2719265	-0.36744273	0.22106755	-0.9560019	0.19106746	1.1902	-0.1054625	1.0877625	0.35844317	-0.03441092	-0.21472187
635	-0.8092462	1.2718921	-0.55584496	0.20149305	-0.95353264	0.22247124	0.8443875	-0.0510125	0.6301625	0.52745193	0.11500048	-0.29341924
636	-0.7539874	1.2669078	-0.6190089	0.19928555	-0.95196474	0.23100924	0.42075	-0.041525	0.2789875	0.54383373	0.090191044	-0.3112386
637	-0.72496134	1.2584808	-0.65509635	0.2095995	-0.9508638	0.22636876	-0.0793375	-0.312675	-0.1584	0.3247583	-0.11110869	-0.18314245
638	-0.7444459	1.2574183	-0.64142215	0.21534942	-0.9500318	0.22445783	0.0067375	-0.1755875	-0.215875	0.28832033	-0.26668066	-0.13363215
639	-0.78167784	1.2525957	-0.6132525	0.23083758	-0.9492088	0.21221165	-0.3337125	-0.6172375	-0.3573625	0.36651716	-0.43722844	-0.12210462
640	-0.8185841	1.2519951	-0.5866902	0.24312113	-0.94921124	0.19800836	-0.8094625	-0.7052375	-0.5850625	0.49143544	-0.33172145	-0.26508787
641	-0.87032527	1.2514703	-0.5452826	0.26764187	-0.9492944	0.16286609	-1.9289875	-1.5153875	-1.2992375	0.59026325	-0.22940591	-0.396704
642	-0.9828587	1.252305	-0.44722053	0.30620688	-0.94589645	0.10408928	-2.662275	-2.2565124	-1.8356249	0.33243227	-0.17928708	-0.2016428
643	-1.1871105	1.2452204	-0.27189386	0.34326676	-0.9383003	0.032834936	-3.0740874	-2.4668875	-1.8195375	-0.09383251	-0.14610338	-1.13224516E-4
644	-1.419263	1.2255683	-0.07549482	0.37085554	-0.9273283	-0.042955745	-3.1942625	-2.3926375	-1.4056625	-0.33181885	-0.3018307	0.29005054
645	-1.8156614	1.161555	0.25572744	0.4089979	-0.8999642	-0.1486681	-2.3194876	2.3062875	-0.6851625	-0.5307104	-0.8456015	0.83174145
646	-1.915898	1.1027935	0.44334444	0.45330963	-0.88099486	-0.13294977	-0.64762497	2.9491	-1.0630125	-0.45239222	-0.2798614	-0.117921785
647	-1.8685632	1.0842398	0.46983352	0.47735757	-0.86749953	-0.13744493	-1.5448124	1.5065875	-1.1512874	-0.2852016	-0.1986625	-0.61393124
648	-1.8489678	1.0580351	0.49931866	0.4835766	-0.8599046	-0.16135229	-1.973675	1.0461	-0.9150625	-0.34545732	-0.12124223	-0.046292976
649	-1.8850598	1.0427275	0.56601435	0.49738842	-0.84801155	-0.18110317	-1.50865	0.59482497	-0.649	-0.36997253	0.065136924	0.44695944
650	-1.9137278	1.0180023	0.6200451	0.5097734	-0.8373235	-0.19579987	-0.7583125	-0.22687499	-0.7819625	-0.19825959	0.2655651	0.53199255
651	-1.9334704	0.9975123	0.65183544	0.52508307	-0.82385343	-0.21182579	-0.3177625	-1.1741124	-1.3332	0.045666173	0.47013783	0.36687165
652	-1.950229	0.97507167	0.6566286	0.5472838	-0.80466264	-0.22872645	-0.418825	-0.902	-1.619475	0.099398136	0.5073078	0.1936653
653	-1.9750763	0.9141977	0.6405552	0.56917745	-0.78337777	-0.24834123	0.298375	-0.572275	-0.3903625	-0.37223554	0.21437164	0.43457973
654	-1.9824339	0.90130806	0.6342659	0.5694461	-0.7847306	-0.24340594	0.7858125	-0.43821248	-0.065725	-0.5440638	0.10725351	0.37693805
655	-1.9776688	0.90104675	0.61449325	0.56360126	-0.7925291	-0.23144732	0.8773875	-0.0185625	0.4662625	-0.7741975	0.12800312	0.27782348
656	-1.9648834	0.91115785	0.590307	0.54995406	-0.8062207	-0.21650793	0.836825	0.1280125	1.10165	-0.8564831	0.2701351	0.1765538
657	-1.9494536	0.93113416	0.5726217	0.52608484	-0.82595485	-0.20087455	0.9901375	-0.031075	1.6113625	-0.6190512	0.3379885	0.12361155
658	-1.9383805	0.96268713	0.5603908	0.5055143	-0.84157604	-0.18847387	0.7676625	0.6419875	1.2293875	0.075724214	0.1533956	-0.1635139
659	-1.8204768	0.99239594	0.53546405	0.55756736	-0.8175422	-0.1416352	-0.9574125	1.7191625	-1.7131125	1.7615	-0.88654035	-1.2728449
660	-1.8270849	0.9345132	0.5392518	0.5823475	-0.79699004	-0.15810049	0.0132	-0.7481375	-0.4202	-0.066751175	0.27772394	-0.08084448
661	-1.8333925	0.92441094	0.5270366	0.58139515	-0.8008101	-0.14142159	0.09515	-0.4477	0.0576125	-0.13052355	3.0549656E-4	0.5047243
662	-1.8081204	0.9283674	0.4895071	0.5700896	-0.8096776	-0.13688639	0.3834875	0.075625	1.0154375	-0.1643862	-0.6683041	0.5691953
663	-1.8081975	0.9383297	0.48612684	0.5527763	-0.82345027	-0.12524088	0.135575	1.0910625	0.96442497	0.20185673	-1.3578951	-0.31584477
664	-1.7824941	0.96777046	0.5049083	0.5559915	-0.820153	-0.13243763	-0.49445	-1.0653499	-0.14135	-0.6628263	-0.07892962	0.29115322
665	-1.7964759	0.9630886	0.5365844	0.5374638	-0.8306251	-0.14322008	0.1164625	-1.3844875	1.143175	-1.0439929	0.5635456	0.7984647
666	-1.8233764	0.9747095	0.539075	0.5068797	-0.84862554	-0.14908049	0.2388375	-0.65285	1.8082625	-0.821054	0.62385494	0.42686334
667	-1.8518095	1.0045481	0.54569703	0.47619733	-0.8658259	-0.15132307	-0.205975	-0.29273748	1.6528875	-0.45988235	0.24155986	0.34490106
668	-1.9077438	1.0703751	0.5910597	0.41458052	-0.8922067	-0.17722173	0.053625	-1.762475	1.3899875	-0.092562184	-0.7156374	0.5016865
669	-1.9615716	1.0959984	0.62547505	0.38308778	-0.90519154	-0.18217885	1.2530375	-2.701325	1.140975	0.099588044	-0.48124573	0.47534397
670	-2.0084872	1.1243479	0.6289075	0.36259878	-0.9199497	-0.14673692	2.964225	-1.8273749	0.83985	0.17787522	0.035958868	0.36864823
671	-1.8678706	1.1960113	0.39055356	0.3299152	-0.9429447	-0.036442764	3.0419126	-0.48427498	0.7684875	0.0052529857	0.39289883	-0.060911976
672	-1.5623031	1.2423131	0.04895713	0.31402496	-0.947942	0.04594771	0.8113875	2.3859	0.2960375	0.0036050053	0.090862505	-0.34666637
673	-1.4512645	1.2466481	-0.027372846	0.30818945	-0.9490069	0.061009903	0.1643125	1.94095	0.160875	0.009654567	0.0870344	-0.23715667
674	-1.3891692	1.250327	-0.04621666	0.30477178	-0.9489854	0.07653644	0.4409625	1.4920125	0.1236125	0.032644145	0.13144723	-0.07765265
675	-1.3403444	1.2508248	-0.060409997	0.29720002	-0.9495454	0.09671031	0.8592375	0.8001125	0.472725	0.0120813325	0.1329246	-0.03299471
676	-1.2760215	1.2517415	-0.10170512	0.2861407	-0.95046544	0.11855939	1.115675	0.1384625	0.6483125	0.05167274	0.120694816	-0.033651136
677	-1.1995174	1.2547644	-0.17157073	0.27338403	-0.9514028	0.13932481	1.1295625	-0.119075	0.8047875	0.06403186	0.11206023	-0.080716245
678	-1.1213644	1.2576678	-0.25375333	0.25843015	-0.95267665	0.15791804	1.1273625	-0.1912625	0.9548	0.05452093	0.05064302	-0.09542568
679	-1.0455016	1.2617563	-0.33734128	0.24098076	-0.954254	0.17505573	1.2519375	-0.2058375	1.1474375	0.047811307	-0.01129652	-0.100132175
680	-0.9697654	1.2671826	-0.4222374	0.22122961	-0.95499057	0.19587614	1.2923625	-0.0594	1.2474	0.13248599	-0.022991132	-0.13654892
681	-0.87607545	1.2702595	-0.52482903	0.2033548	-0.954734	0.2155157	1.0976624	0.152075	1.1506	0.3283424	0.014367039	-0.206953
682	-0.7840372	1.2698795	-0.62278926	0.18805277	-0.9540662	0.23175631	0.7101875	0.64405	0.74195	0.5247913	0.03296534	-0.29761258
683	-0.70251435	1.2680941	-0.70261675	0.17875257	-0.9536487	0.2406635	0.22385	0.724625	0.3108875	0.61023825	-0.018216735	-0.3472843
684	-0.6497479	1.2663014	-0.74337983	0.17651759	-0.9540218	0.24083391	-0.0974875	0.25575	0.0523875	0.5578402	-0.070335954	-0.32451892
685	-0.6461762	1.2676167	-0.7343305	0.18772662	-0.95370317	0.23350802	-0.3444375	-0.2321	-0.2679875	0.3598728	-0.18227544	-0.42066398
686	-0.7309175	1.2736708	-0.6591023	0.21875785	-0.9603515	0.17084199	-1.860925	-1.23805	-0.9884875	0.63884157	-0.28103992	-0.3777686
687	-0.8671153	1.287425	-0.5421693	0.25330645	-0.9591002	0.12361225	-2.0587876	-2.3978624	-1.6663625	0.6011278	-0.058942612	-0.19405568
688	-1.061519	1.2875589	-0.3721317	0.30000257	-0.95158076	0.06172235	-2.25885	-4.35105	-2.1718125	0.39551732	-0.16237952	0.1038281
689	-1.3045305	1.2672606	-0.18517092	0.34333673	-0.9387089	-0.016210383	-2.7718625	-4.5824623	-2.0761125	0.16277947	-0.43988436	0.31284645
690	-1.5578482	1.2302865	-0.015796343	0.37215903	-0.92264766	-0.097653165	-3.3336875	-2.054525	-1.474825	-0.061149865	-0.8375971	0.4999926
691	-1.7824495	1.1865697	0.1414643	0.39501497	-0.90539515	-0.1534274	-3.248575	2.401575	-0.9618125	-0.24241559	-1.2610729	0.7635191
692	-1.951936	1.1044682	0.3990005	0.4595841	-0.8749155	-0.15040748	-1.01695	4.6311374	-1.1438625	-0.68241286	-0.6282497	0.54225767
693	-1.9052972	1.0726599	0.46087575	0.4770122	-0.86944366	-0.125873	0.415525	1.255375	-1.1576124	-0.7189082	-0.16052574	-0.09206279
694	-1.841794	1.0594711	0.46722192	0.4876646	-0.8608488	-0.1429681	-0.4093375	-1.8242124	-0.9384375	-0.50570744	0.048111796	-0.62645084
695	-1.8461076	1.0423458	0.46443683	0.49645832	-0.84932935	-0.17744356	-1.074425	-1.4818375	-1.02465	-0.29309443	0.06523152	-0.11572157
696	-1.901533	1.0216343	0.48211762	0.51540405	-0.8337171	-0.19644773	-1.058475	0.2138125	-1.3652375	-0.116214424	0.05665292	0.3534355
697	-1.932531	0.9943462	0.501119	0.54745656	-0.812145	-0.20007218	-0.8573125	0.9277125	-1.865325	-0.012594188	0.16668627	0.45155534
698	-1.9250351	0.9583019	0.50844705	0.5814576	-0.78782636	-0.20138119	-0.59015	0.55825	-1.8313625	-0.15199274	0.24909544	0.4379714
699	-1.907618	0.9170989	0.50961125	0.6054572	-0.7681754	-0.20650698	-0.3092375	-0.1661	-1.2747625	-0.3564205	0.3533895	0.39010027
700	-1.904033	0.86197215	0.5030408	0.618776	-0.7533319	-0.22118856	0.1887875	-0.5335	-0.17435	-0.5316201	0.46158874	0.31884912
701	-1.9130839	0.8537506	0.5005504	0.61580753	-0.7565156	-0.21859092	0.560175	-0.215325	0.291775	-0.7163121	0.36273888	0.3155328
702	-1.913604	0.85578394	0.48985615	0.60450745	-0.7681853	-0.20923589	0.6697625	0.0045375	0.9856	-0.8934983	0.33148804	0.23094843
703	-1.900647	0.899802	0.4687386	0.5441697	-0.81715655	-0.18828706	1.0274	-0.7145875	2.254175	-0.56068355	0.2871871	0.11947974
704	-1.9023455	0.94431865	0.46136597	0.51284486	-0.83880544	-0.18086757	0.2792625	0.77907497	1.3910875	0.24811843	0.027796252	-0.66082966
705	-1.9126077	0.9883126	0.4587401	0.520335	-0.8397006	-0.15320468	0.0504625	2.6046624	-0.72875	1.4112705	-0.504749	-1.3054038
706	-1.872627	1.0004383	0.46212387	0.5464685	-0.8218305	-0.15901098	-0.6381375	-1.1490875	-1.6621	1.4930881	-0.8944845	-0.72397065
707	-1.8474399	0.97376376	0.4570469	0.5597108	-0.80934066	-0.17609273	-0.034649998	-0.4728625	-0.607475	0.44487637	-0.473534	0.16519058
708	-1.8746271	0.9462121	0.46163213	0.56621605	-0.80732805	-0.1641279	0.445225	0.9068125	-0.1786125	-0.13115491	0.20193051	0.08533585
709	-1.8611286	0.9400632	0.44788694	0.5748612	-0.80375445	-0.15109895	-0.093225	0.7623	-0.33715	0.0494048	0.40906027	-0.14033836
710	-1.8319879	0.93555444	0.43940902	0.5839737	-0.79833686	-0.1447418	-0.336875	1.395625	-0.3883	0.56393147	-0.55559283	0.2450476
711	-1.8032483	0.9172542	0.44810545	0.61874914	-0.7725117	-0.14032964	-1.1213125	1.4427875	-1.5747875	0.7162202	-1.3155617	-1.0123768
712	-1.8145852	0.88257843	0.4880313	0.5943237	-0.7856369	-0.16991563	0.7997	-2.14665	1.127225	-1.4340789	0.32283878	0.81364655
713	-1.8669643	0.9366854	0.45363674	0.5223796	-0.8332257	-0.17936385	-0.1390125	-0.3796375	1.79025	-0.8328841	0.21629912	0.3279877
714	-1.8947214	0.97695184	0.46275473	0.49226886	-0.851409	-0.17914106	-0.4987125	0.87848747	1.6028374	-0.68115264	-0.3276889	0.48108298
715	-1.916402	1.0123136	0.490568	0.467311	-0.86604035	-0.1758187	-0.4965125	0.9801	1.6198875	-0.57812136	-0.70103914	0.54126215
716	-1.9270508	1.0408802	0.5297105	0.4425627	-0.87796146	-0.18066368	-0.2347125	-0.6727875	1.2304875	-0.2456208	-0.5198978	0.37179518
717	-1.98291	1.0914941	0.57077366	0.4156213	-0.8897078	-0.18707345	0.68365	-2.7160375	0.9345875	-0.057211515	-0.16789159	0.39919883
718	-1.9983653	1.1195387	0.51606065	0.3598613	-0.92156285	-0.14331433	4.0709624	-1.9100125	1.2601875	0.028517898	0.27507967	0.37470576
719	-1.8025075	1.2116423	0.2061368	0.31302142	-0.9493311	0.010274834	2.8780124	0.64515	1.2815	0.32459325	0.048214894	-0.29509136
720	-1.585511	1.2457584	-0.012194587	0.30388933	-0.9514042	0.042405482	1.3349875	1.3275625	0.693	0.35156938	0.19972225	-0.3889957
721	-1.4615213	1.2561411	-0.12717992	0.29756677	-0.9519268	0.06787163	0.7272375	1.915925	0.2215125	0.22342715	0.29943448	-0.26063922
722	-1.2885619	1.2587074	-0.23450248	0.2860823	-0.9508567	0.11552398	0.81345	1.16435	0.3045625	0.07497275	0.18919002	-0.18382673
723	-1.2071545	1.2570921	-0.28275153	0.2789454	-0.9506728	0.13314699	0.771925	0.400125	0.373725	0.047461335	0.17677368	-0.20144974
724	-1.0921422	1.2589568	-0.3813892	0.26925042	-0.95174855	0.14489928	0.659175	0.1813625	0.5737875	-0.0033941471	0.06479133	-0.18587787
725	-1.044969	1.2659634	-0.42781064	0.23841208	-0.955362	0.17251147	0.985875	0.1929125	1.00265	0.08401912	-0.04657984	-0.06608946
726	-0.96874017	1.270772	-0.5025955	0.22632869	-0.9554999	0.18738395	0.935825	-0.098037496	1.0399125	0.19619428	0.03144792	-0.095335014
727	-0.83420795	1.2712394	-0.64664674	0.20560846	-0.9541814	0.21582478	0.610225	-0.0111375	0.519475	0.511624	-0.062332384	-0.18871468
728	-0.7747794	1.2684814	-0.7087308	0.20083278	-0.9536829	0.22242302	0.3271125	-0.20693749	0.3119875	0.5760327	-0.11043023	-0.1858328
729	-0.74143916	1.266592	-0.74625474	0.20024575	-0.95228744	0.2288399	0.4059	0.120725	-0.003025	0.621054	-0.17320193	-0.15758607
730	-0.72447956	1.26335	-0.76715374	0.20404045	-0.95002455	0.23481512	0.106837496	0.347875	-0.33935	0.5971828	-0.27577052	-0.27457047
731	-0.7150837	1.2559749	-0.7722607	0.21429846	-0.9490974	0.22936358	-0.6188875	0.304975	-0.7341125	0.66062504	-0.4415295	-0.39989874
732	-0.739233	1.2516931	-0.7397508	0.23482883	-0.9488256	0.20953019	-1.1424875	-0.6675625	-1.1587125	0.6772048	-0.40021113	-0.34959134
733	-0.8151394	1.2509996	-0.65927297	0.26967156	-0.94638056	0.1759496	-1.533125	-1.7216375	-1.71105	0.5564294	-0.33037785	-0.26769271
734	-0.9518348	1.2456342	-0.5396369	0.31265077	-0.9412184	0.12519927	-2.2429	-2.5328875	-1.9217	0.18439814	-0.28283364	-0.27351734
735	-1.1381721	1.2315624	-0.38504735	0.35053283	-0.93477577	0.051362667	-2.9676626	-3.74605	-1.6344625	-0.13259703	-0.26900098	-0.04310579
736	-1.3644211	1.2139343	-0.20936368	0.37598416	-0.92564124	-0.033783875	-3.2795124	-3.2949126	-1.2098625	-0.24295664	-0.38730988	0.28332517
737	-1.6047767	1.19053	-0.032604475	0.39122516	-0.9132013	-0.111012205	-3.496625	-0.8507125	-0.86817497	-0.29387042	-0.72421473	0.49133328
738	-1.9241308	1.1255438	0.2730779	0.43424177	-0.8866016	-0.15712751	-1.6086125	4.565275	-0.723525	-0.62731516	-0.72318435	0.71981865
739	-1.8685286	1.0814613	0.3934042	0.45398542	-0.88010484	-0.1364886	-0.6732	1.276275	-0.884125	-0.5023034	-0.023671925	-0.31141657
740	-1.8660115	1.0818012	0.44150352	0.46541175	-0.8707155	-0.15672772	-1.4394875	0.0726	-0.737275	-0.3948766	0.039415814	-0.19475548
741	-1.8862005	1.0629039	0.47732878	0.47589123	-0.85971004	-0.18369472	-1.615075	0.0066	-0.5638875	-0.405142	0.1598171	0.25525436
742	-1.9683198	1.0195926	0.5723519	0.48490104	-0.8489695	-0.20842065	-1.271325	-0.215325	-0.5787375	-0.29152182	0.28678292	0.47794664
743	-1.9950442	0.9984994	0.5941205	0.5190282	-0.8221272	-0.23245297	0.055825	-0.2498375	-1.5727249	0.15253145	0.41468072	0.38230008
744	-1.9959981	0.9725537	0.5804633	0.5452754	-0.80625933	-0.2278987	0.020624999	0.5405125	-1.296075	-0.031620912	0.39422566	0.19670604
745	-1.9732766	0.9440651	0.5556639	0.55942065	-0.79856706	-0.22058138	0.1621125	0.45045	-0.3966875	-0.3653381	0.4150808	0.24616243
746	-1.933898	0.92560345	0.5289003	0.55571735	-0.8067477	-0.19913153	0.6474875	-0.0342375	0.594	-0.6588825	0.2897293	0.16579819
747	-1.9128811	0.95519096	0.5016389	0.51140505	-0.8382123	-0.18756942	0.7198125	-0.6925875	1.5731375	-0.57287294	0.20834993	0.080734566
748	-1.920223	0.9857284	0.49850214	0.48686755	-0.8543611	-0.17984463	0.755975	0.5927625	1.20065	0.048713505	-5.777458E-4	-0.28081283
749	-1.9303309	1.0177723	0.4983088	0.48521814	-0.8617522	-0.14582111	0.84534997	2.4299	-0.00935	0.9922589	-0.37963927	-0.65000457
750	-1.8821963	1.0379454	0.47732252	0.5077208	-0.85135895	-0.12932359	-0.7392	1.221825	-1.521575	1.5566982	-0.8046044	-0.89280176
751	-1.8239144	1.0273155	0.4604942	0.5342256	-0.8337836	-0.13683979	-0.4785	0.270325	-1.2736624	0.8700558	-0.50088006	-0.18681465
752	-1.8221141	0.9931	0.47448248	0.55378544	-0.82170665	-0.1320497	0.12815	0.32999998	-0.754325	0.070480615	0.082058325	0.052538987
753	-1.8012536	0.9509762	0.4638047	0.5802801	-0.8024362	-0.13670596	0.1483625	-0.9417375	-0.050875	0.237044	0.3620692	0.03058976
754	-1.7987772	0.9317637	0.4621159	0.568738	-0.810254	-0.13907772	1.049675	-1.3091375	0.765325	0.36306632	-0.535113	0.553145
755	-1.8101425	0.93993765	0.44803375	0.5466777	-0.8249254	-0.14127417	1.5115374	-3.058275	0.997425	0.31489718	-1.2699828	0.4701274
756	-1.8175246	0.9637103	0.41040114	0.5319112	-0.8330125	-0.14992653	-1.2425874	1.1779625	0.31515	-0.044342402	-1.6705503	-1.2147065
757	-1.8420838	0.9850699	0.38622287	0.5434627	-0.8232127	-0.16213183	-1.9045125	1.6050375	-0.5446375	-0.6954505	-1.0459005	-0.8338927
758	-1.856841	0.9727351	0.45049074	0.5418061	-0.82449436	-0.16115893	-0.714725	0.606375	0.13213749	-1.1577083	0.26842403	0.9079479
759	-1.8579623	0.97006077	0.4799762	0.52697647	-0.8348449	-0.15699418	-0.1230625	0.58025	1.160225	-1.169683	0.7270009	0.66942537
760	-1.8601555	0.9828411	0.4968412	0.51030934	-0.8475002	-0.1436834	0.22605	1.2826	1.043075	-0.78319925	0.771858	0.49057943
761	-1.8514594	1.0063345	0.5069161	0.49967462	-0.8553279	-0.13437538	-0.1942875	0.55825	0.634425	-0.57724345	0.34217805	0.35038453
762	-1.8337182	1.0238037	0.51124716	0.48503646	-0.86311954	-0.13813604	-0.42734998	-0.253	0.783475	-0.5645472	-0.36899057	0.39521554
763	-1.8419677	1.0386773	0.5269348	0.46263278	-0.87338114	-0.14997841	0.0451	-1.4652	1.3475	-0.38036978	-0.88635886	0.52326584
764	-1.9200654	1.0880505	0.5543626	0.38967496	-0.9064686	-0.16057846	1.559525	-3.6455374	1.3591875	0.06537092	-0.04663545	0.25579253
765	-1.9536976	1.126192	0.520087	0.35829747	-0.92435265	-0.1285015	3.358025	-1.1259875	1.3816	0.02202363	0.36777773	0.19486237
766	-1.7957081	1.2150358	0.2782485	0.3247192	-0.9452463	-0.01959763	2.3108249	0.2453	1.2293875	0.2272686	0.14646949	-0.24645743
767	-1.664776	1.2322263	0.14469916	0.31308573	-0.94933003	0.008167814	1.1125125	0.7486875	0.726	0.38293877	0.15514044	-0.26882532
768	-1.5661366	1.2485158	0.04823097	0.32008728	-0.9467145	0.024347393	0.5251125	1.2386	0.044825	0.386136	0.19289185	-0.13780305
769	-1.5095737	1.2437735	0.008928143	0.3232892	-0.94497716	0.042655557	0.5357	1.6259375	-0.004125	0.17742947	0.16251539	-0.05182987
770	-1.456174	1.2388012	-0.018009288	0.32013556	-0.94459414	0.067620955	0.8421875	1.6949625	0.2311375	0.066821605	0.13950242	-0.011244807
771	-1.3844205	1.2369804	-0.057930272	0.31144965	-0.9450289	0.09610856	1.0943625	1.3862749	0.486475	0.05032406	0.11250596	-0.039533645
772	-1.2963701	1.2378478	-0.11749725	0.29961115	-0.94557476	0.12425219	1.2881	0.9183625	0.6705875	0.07439498	0.06993251	-0.098365344
773	-1.1251303	1.2400935	-0.2623005	0.27362442	-0.94658375	0.16860019	1.444575	-0.6560125	1.03455	0.09987711	-0.03700956	-0.19704056
774	-0.9336706	1.246474	-0.50591177	0.25298625	-0.9477095	0.1927746	0.73039997	-0.3210625	0.686675	0.35170794	0.05229664	-0.3482333
775	-0.91446	1.2472688	-0.5329125	0.25058597	-0.9481138	0.1939182	0.0482625	-0.355575	0.2971375	0.4178085	0.051676508	-0.31563076
776	-0.93403435	1.2508396	-0.52518135	0.25297958	-0.949395	0.18430392	-0.3359125	-0.9898625	0.130075	0.3580296	-0.03734816	-0.17135285
777	-0.97243744	1.25491	-0.50689083	0.25758836	-0.95034295	0.17266597	-0.2762375	-0.8977375	-0.069025	0.35689178	-0.20979473	-0.08917973
778	-1.0063821	1.254529	-0.48659617	0.26426286	-0.94997644	0.16439883	-0.290125	-0.5638875	-0.2563	0.40220502	-0.29661378	-0.0847811
779	-1.0063821	1.254529	-0.48659617	0.27396584	-0.9490188	0.15369798	-0.406175	-0.6193	-0.4563625	0.46915346	-0.35240325	-0.05411082
780	-1.1673893	1.232049	-0.34277564	0.31217223	-0.9416019	0.123497136	-1.3915	-0.34925	-1.38325	0.49169627	-0.26737362	-0.3575491
781	-1.3158203	1.213327	-0.20339425	0.34820503	-0.93418664	0.073251374	-2.62185	-1.6724125	-1.9526374	0.24303351	-0.19934544	-0.3683584
782	-1.3158203	1.213327	-0.20339425	0.38747144	-0.92151064	-9.916017E-4	-3.233725	-2.4930124	-2.0728126	-0.074321605	-0.2410734	-0.035812676
783	-1.5217065	1.1826817	-0.027032347	0.41967788	-0.9038915	-0.07853597	-3.1645625	-2.346575	-1.7887375	-0.28859225	-0.4020259	0.3346063
784	-1.7139769	1.1408162	0.12719463	0.4424547	-0.88393044	-0.1490563	-3.182575	-1.04335	-1.326875	-0.3631428	-0.75174224	0.52693087
785	-1.8656025	1.0958974	0.25212985	0.46370763	-0.86453664	-0.19201228	-2.5738626	1.8750875	-0.885225	-0.5027443	-1.0926499	0.7874251
786	-1.9586818	1.0236776	0.42165878	0.5106964	-0.8418122	-0.17279766	-0.6307125	2.8967125	-0.851125	-0.75309706	-0.3913224	0.005106532
787	-1.9093624	1.0060579	0.44811165	0.525197	-0.8314959	-0.17916484	-1.37885	0.9403625	-0.8331125	-0.59053344	-0.103978105	-0.480667
788	-1.8966894	0.9883244	0.47494256	0.5372107	-0.81816715	-0.20328397	-1.8896625	0.2965875	-0.6777375	-0.41936666	0.0037940876	0.045898635
789	-1.9232514	0.9650372	0.52050406	0.5483299	-0.80391526	-0.2288486	-1.6671875	0.153175	-0.654225	-0.33813113	0.09301314	0.46952134
790	-1.9823833	0.91686505	0.6024609	0.5777835	-0.77302104	-0.2606187	-0.6754	-0.2121625	-1.2799875	0.015687456	0.3235868	0.41974714
791	-1.9931089	0.8910755	0.61325777	0.60121524	-0.75220627	-0.2684087	-0.518925	0.1144	-1.4876125	0.070145614	0.32865885	0.30846983
792	-1.9852121	0.83145076	0.6068088	0.62498	-0.73101544	-0.2726422	0.2525875	-0.29273748	-0.149875	-0.45973536	0.23549557	0.3748899
793	-1.9824246	0.8201788	0.6024944	0.62175107	-0.7355466	-0.26779518	0.7591375	-0.2875125	0.21835	-0.5968734	0.19212152	0.39745876
794	-1.9795521	0.8241511	0.58922714	0.61435145	-0.7457256	-0.25648248	0.9295	-0.1304875	0.569525	-0.7102689	0.24653593	0.35414302
795	-1.9693847	0.8373928	0.5696686	0.6001198	-0.7616992	-0.24287437	1.001825	-0.0730125	1.1463375	-0.806129	0.34324357	0.30148292
796	-1.9581038	0.85894054	0.5517386	0.5752292	-0.78571534	-0.22600834	1.40195	-0.3408625	1.7391	-0.7187614	0.3590028	0.3112224
797	-1.9478806	0.8934175	0.53458345	0.5430115	-0.8136069	-0.20615359	1.5712125	-0.30635	1.837	-0.26207876	0.18842338	-0.034717973
798	-1.8967557	0.9764593	0.48185685	0.5506189	-0.82352513	-0.13394977	-0.82225	2.162875	-1.327975	1.6263384	-1.1180651	-1.3349645
799	-1.8169222	0.9411149	0.48521432	0.5944792	-0.78890145	-0.15344724	0.2611125	-0.39325	-0.9714375	0.17137706	-0.033315655	0.109303504
800	-1.8248801	0.9136935	0.47782353	0.60605294	-0.78065085	-0.15033604	-0.0485375	0.29755	-0.6032125	-0.10799482	0.40939707	-0.12672818
801	-1.8162947	0.89897543	0.46495593	0.61837506	-0.7704413	-0.15280516	-0.1953875	-0.3524125	-0.49885	0.12647209	0.22528839	0.1321171
802	-1.8110701	0.88245195	0.463175	0.62057304	-0.7697743	-0.14715108	0.415525	0.563475	0.20019999	0.33274502	-0.78660184	0.45866483
803	-1.8088232	0.8772775	0.46241528	0.61058134	-0.7780857	-0.14522478	0.9263375	-1.9822	0.5418875	0.393807	-1.2238562	0.48793122
804	-1.7994025	0.88816875	0.44216648	0.60852826	-0.778098	-0.15353823	-1.5351875	1.6322625	-0.3573625	0.2093158	-1.1342416	-1.2999786
805	-1.8176193	0.895521	0.43816924	0.62232	-0.7661099	-0.15846424	-1.0553125	0.821975	-0.66385	-0.6979622	-0.49210116	-0.5883248
806	-1.8156816	0.87873334	0.4915002	0.5968545	-0.7882422	-0.14750013	0.14093749	0.36245	1.354925	-1.226931	0.3774318	0.5398549
807	-1.8139205	0.90147597	0.49246374	0.57710505	-0.8045882	-0.1374945	0.0419375	0.984225	1.238875	-0.8504996	0.30295214	0.35186762
808	-1.8081895	0.9292121	0.49947026	0.5229856	-0.8447628	-0.11035737	-0.39545	0.9403625	1.144275	-0.6891477	-0.12415157	0.3117794
809	-1.7789853	1.0013329	0.49137852	0.49836048	-0.8591679	-0.11306769	-0.4167625	-0.0782375	1.5635124	-0.6410669	-0.49454778	0.4028689
810	-1.8192788	1.0611472	0.53785986	0.43041098	-0.89338523	-0.12620054	1.0976624	-2.9159625	1.3847625	0.043702148	-0.07552916	0.42600173
811	-1.8484902	1.0971797	0.5226377	0.40357104	-0.90681815	-0.11886351	1.92775	-3.59425	1.0580626	0.0920406	0.16350012	0.35953626
812	-1.8563151	1.1284765	0.46073613	0.37802	-0.9208011	-0.09243204	3.210075	-1.794925	1.2293875	0.07774455	0.27554116	0.25889993
813	-1.8350025	1.1608558	0.36429083	0.3618292	-0.93175024	-0.015429233	3.9433625	0.8806875	1.5294125	0.21309435	0.1307258	0.05568917
814	-1.4647677	1.218823	-0.025799137	0.31814104	-0.94313884	0.09269474	1.493525	1.38105	0.7909	0.3659568	0.060875818	-0.49769476
815	-1.318436	1.2310988	-0.1580506	0.31234533	-0.94336116	0.108751334	0.7761875	1.1130625	0.374825	0.18643141	0.19759664	-0.44411832
816	-1.2543185	1.2330763	-0.20200998	0.30531254	-0.9438073	0.123811506	0.7038625	0.4096125	0.388575	0.06451925	0.17021404	-0.29047817
817	-1.1997995	1.234462	-0.24241723	0.29604447	-0.9449587	0.13684991	0.8635	-0.35035	0.64185	0.035255205	0.11835321	-0.19973983
818	-1.1520481	1.2373514	-0.29123926	0.2860001	-0.94644046	0.14755179	0.8347625	-0.722975	0.70042497	0.05967267	0.12055357	-0.20830102
819	-1.1072596	1.241844	-0.3509453	0.27946386	-0.9476829	0.15203276	0.6527125	-0.6287875	0.64515	0.1218664	0.06928847	-0.19637528
820	-1.0833082	1.2456659	-0.39333537	0.27274418	-0.9484395	0.15934317	0.641025	-0.50215	0.6259	0.210635	-0.01680518	-0.10123918
821	-1.0241199	1.2471728	-0.48084876	0.2774587	-0.9442816	0.17511709	0.6133875	-0.5566	0.4536125	0.28084403	0.12134586	-0.03230364
822	-1.0168006	1.2361596	-0.503374	0.2779309	-0.94247884	0.18386121	0.61875	-0.399575	0.18535	0.32554004	0.0267755	-0.036154777
823	-0.9939611	1.2319402	-0.5389716	0.2790677	-0.94048274	0.19217369	0.546425	-0.3608	0.077825	0.30636042	-0.104364336	-0.085033014
824	-0.9736359	1.226306	-0.5692457	0.28009194	-0.9386011	0.19973409	0.4899125	-0.1786125	0.0364375	0.31267563	-0.21909009	-0.14335795
825	-0.9569874	1.2208487	-0.5943165	0.28104118	-0.936452	0.20830458	0.3931125	0.36245	-0.10835	0.34759796	-0.31400675	-0.22217308
826	-0.92277306	1.2092412	-0.6192267	0.28451487	-0.93588674	0.20611726	-1.1	0.77288747	-0.4148375	0.31406313	-0.41223255	-0.545368
827	-0.93338174	1.2101824	-0.58875316	0.29623383	-0.93824136	0.1768212	-1.7523	-0.3639625	-0.785125	0.47502	-0.3749085	-0.5148487
828	-1.0056947	1.21725	-0.5033402	0.3240239	-0.9362124	0.13353615	-1.893925	-1.8063375	-1.457775	0.5646611	-0.10568364	-0.30826092
829	-1.1404091	1.2155437	-0.37939587	0.36660513	-0.92714727	0.07290978	-2.138675	-3.8726876	-1.882375	0.26224807	0.0074683097	-0.11216054
830	-1.3243859	1.1944131	-0.2385261	0.40185818	-0.91529816	-0.007498027	-2.546225	-5.1445622	-1.6493125	-0.07964106	-0.22701074	0.18934819
831	-1.5347421	1.1651316	-0.108252056	0.42127812	-0.90170485	-0.09365149	-2.91225	-3.4843874	-1.1034375	-0.17835763	-0.6039068	0.52433956
832	-1.744693	1.1325929	0.01647185	0.43319264	-0.8873974	-0.15552108	-3.118775	0.8083625	-0.5957875	-0.26255044	-1.0546974	0.7213774
833	-1.8932005	1.100145	0.13834356	0.45363826	-0.87243783	-0.1799501	-2.8378625	4.2857375	-0.5850625	-0.44120705	-1.1123786	0.72562283
834	-1.9484973	1.0686027	0.25304735	0.48350775	-0.8574777	-0.17398076	-1.907675	4.79655	-0.8894875	-0.61286557	-0.6595406	0.57286453
835	-1.9281582	1.0382358	0.3379944	0.5024796	-0.8513803	-0.14826615	-0.20075	2.7240124	-0.99275	-0.7494673	-0.20080628	0.09638542
836	-1.8725973	1.024069	0.37145063	0.51065207	-0.84516644	-0.15570948	-0.7093625	-0.3388	-0.63827497	-0.65540737	-0.0038702067	-0.5302232
837	-1.861533	1.0113657	0.38459393	0.51578355	-0.83641124	-0.1835783	-1.403325	-0.4665375	-0.5638875	-0.40497315	0.05425527	-0.13395992
838	-1.9020176	0.99606735	0.4170484	0.52908117	-0.82219565	-0.2082895	-1.60765	0.32587498	-0.952325	-0.1980873	0.19967271	0.29228035
839	-1.9597976	0.94152796	0.49425796	0.56820077	-0.78620267	-0.2415587	-1.0712625	0.3227125	-0.95755	-0.31040257	0.32095802	0.4605189
840	-1.9707725	0.91142493	0.52049285	0.5824669	-0.7719809	-0.25317007	-0.3348125	-0.5754375	-0.9948125	-0.17482166	0.43263838	0.56122816
841	-1.9787713	0.8874412	0.53130686	0.5952395	-0.759817	-0.26016447	0.11	-0.4456375	-0.97679996	-0.07627931	0.4766366	0.41470578
842	-1.983815	0.8675266	0.5211092	0.604755	-0.7529181	-0.25826862	0.22385	0.075625	-0.38073748	-0.2881342	0.39339212	0.2684674
843	-1.9771374	0.85401964	0.50682914	0.6053885	-0.75562936	-0.24868909	0.5484875	0.3823875	0.2811875	-0.56318665	0.3161798	0.34563097
844	-1.965101	0.8544863	0.4956154	0.5973615	-0.767329	-0.23169589	0.80808747	0.434775	0.891	-0.74373764	0.28128925	0.32863778
845	-1.9458526	0.8692705	0.48223564	0.57842606	-0.78647184	-0.21494669	1.10935	-0.1232	1.435775	-0.7870958	0.2899428	0.28742373
846	-1.9297049	0.8966553	0.4677916	0.5494654	-0.81114405	-0.19862084	1.4733125	-0.7073	1.7433625	-0.5796336	0.22235203	0.18404897
847	-1.9199158	0.9356802	0.44622287	0.5283118	-0.8300426	-0.17672837	0.839025	1.840575	0.8834375	0.15211634	-0.15966685	-0.64957124
848	-1.9070086	0.9739867	0.4214436	0.5460418	-0.8272052	-0.12994999	0.1771	3.7090626	-1.145925	1.2478421	-0.7249813	-1.2528176
849	-1.8267821	0.9798423	0.40259704	0.57923514	-0.80599254	-0.11908051	-0.355025	0.032725	-1.8143125	1.3492053	-0.84049064	-0.74952805
850	-1.7742132	0.9469556	0.39532584	0.5965366	-0.79238427	-0.12485381	0.0972125	0.044275	-0.7000125	0.4803289	-0.20659126	-0.09165995
851	-1.7792615	0.9183522	0.39295998	0.6131118	-0.78007895	-0.1220157	0.150425	1.6572875	-0.3988875	0.07363133	0.25550702	-0.34790784
852	-1.7773052	0.8969046	0.39946315	0.62706876	-0.7698351	-0.11599846	-0.3040125	0.1782	-0.5787375	0.2245062	0.16830601	-0.20010246
853	-1.7537363	0.8820019	0.40355703	0.63273454	-0.76504654	-0.11690908	0.2525875	0.2536875	-0.150975	0.31202078	-0.7801063	0.44065526
854	-1.7521119	0.87570775	0.38696983	0.61782974	-0.7717044	-0.14858022	-1.4554375	-0.1755875	-0.18287499	0.36943325	-1.4626534	-0.934799
855	-1.7978365	0.8843748	0.37820798	0.6268161	-0.75996774	-0.16990471	-1.530925	0.359425	-0.46695	-0.5340485	-0.6576622	-0.6136886
856	-1.8295872	0.86778116	0.4315106	0.61631835	-0.76788384	-0.1726947	-0.3837625	-0.2080375	0.5886375	-1.3262113	0.2879603	0.8669913
857	-1.8400941	0.8734802	0.45058492	0.5930745	-0.7861214	-0.17202652	-0.0539	0.10285	1.5049375	-1.260047	0.5654334	0.65612435
858	-1.8509742	0.8976359	0.46269536	0.5730787	-0.8030501	-0.16127172	0.168575	1.028225	1.2208625	-0.8379105	0.5464752	0.5167304
859	-1.849463	0.92660475	0.47331828	0.5592528	-0.81549466	-0.14670314	-0.011275	0.9235875	0.85263747	-0.68147	0.08725308	0.43895084
860	-1.8307111	0.9498199	0.47644264	0.5437969	-0.82659656	-0.1426188	-0.2124375	0.0589875	1.03675	-0.6502189	-0.56320465	0.45098275
861	-1.8245118	0.9686494	0.48637643	0.5194006	-0.84031767	-0.15299083	-0.0092124995	-1.3563	1.4007125	-0.41889602	-0.7355233	0.4686942
862	-1.8477379	0.9915369	0.50247514	0.4864605	-0.857603	-0.16489504	0.8166125	-2.7850626	1.4124	-0.13519137	-0.32302386	0.4390082
863	-1.8867598	1.0230192	0.5049834	0.45258272	-0.8748004	-0.17091039	1.6286875	-3.979525	1.226225	-0.020977188	0.0816352	0.31300518
864	-1.9467256	1.094262	0.41043538	0.38976285	-0.91524315	-0.09865282	4.012525	-0.215325	1.484725	0.123387	0.30953977	0.074295014
865	-1.8572638	1.1443067	0.27624172	0.37005115	-0.9278631	-0.038066197	3.0738125	-0.5702125	1.077175	0.3132363	0.07781729	-0.21942616
866	-1.6804659	1.1858351	0.07514593	0.3660674	-0.9302092	0.0047188373	0.9805125	0.228525	0.029975	0.21079805	0.1675181	-0.23877083
867	-1.5722505	1.1957054	-0.066115044	0.3676451	-0.9292606	0.025080815	0.75075	1.1182874	-0.065725	0.029098002	0.18104957	-0.11754259
868	-1.5184234	1.1938121	-0.111975685	0.36617443	-0.92887026	0.049329475	0.6964375	1.6709	0.1098625	-0.04762704	0.17994064	-0.042800423
869	-1.4548434	1.1920983	-0.15120283	0.3594942	-0.92965245	0.07633873	0.7326	1.927475	0.3014	-0.06755229	0.12404084	-0.0035558573
870	-1.3817666	1.1935898	-0.19135569	0.34730005	-0.9315456	0.1045115	0.8666625	1.6919374	0.48125	-0.066764876	0.02339574	-0.014404462
871	-1.2153199	1.2082042	-0.30006024	0.30738324	-0.9384555	0.15535037	1.5371125	-0.2446125	1.0260249	-0.09943216	-0.017094878	-0.12557973
872	-1.1272254	1.2178991	-0.3856999	0.29318303	-0.9418476	0.16212247	1.2881	-0.6067875	1.156925	0.06839191	0.011465381	-0.2599818
873	-1.0869684	1.2270516	-0.44559813	0.27873006	-0.94361955	0.17665997	0.740025	-0.1095875	0.782375	0.42535248	-0.02141101	-0.32456514
874	-1.0209411	1.2330694	-0.5255007	0.27279708	-0.94445914	0.18137196	-0.0177375	0.1436875	0.2024	0.63270754	-0.028430771	-0.28401724
875	-0.9868554	1.2360985	-0.56139815	0.27344808	-0.9453159	0.17584556	-0.44233748	0.3227125	-0.0583	0.6156498	-0.08078506	-0.1670841
876	-1.0102855	1.2392458	-0.5210418	0.2822001	-0.9429541	0.17469315	-0.29865	1.03455	-0.4862	0.38691303	-0.26357496	-0.1997696
877	-1.0355306	1.2285004	-0.45329168	0.30841628	-0.9399327	0.14395553	-1.6033875	-0.83503747	-1.0044374	0.43765405	-0.3752508	-0.604613
878	-1.1044744	1.2244143	-0.3765315	0.3410265	-0.93512446	0.09252106	-2.1407375	-2.66365	-1.7216375	0.5121845	-0.18739845	-0.41515103
879	-1.2591392	1.2147223	-0.2440112	0.38303533	-0.92306364	0.023551762	-2.1151624	-4.9258	-1.97285	0.13959466	-0.11791497	0.07094365
880	-1.6662599	1.1481978	0.00430332	0.43126896	-0.88993955	-0.14605449	-3.2049875	-2.541275	-1.0747	-0.122201666	-0.8419718	0.57836336
881	-1.85793	1.1077634	0.116804816	0.44366133	-0.8721045	-0.20473401	-3.4881	1.927475	-0.4318875	-0.3335696	-1.3380942	0.78352606
882	-1.9860334	1.0691284	0.24078536	0.46801376	-0.8551117	-0.22150494	-2.8314	5.0091248	-0.4307875	-0.575659	-1.2405	0.7903123
883	-2.018496	1.0342383	0.35483435	0.5011054	-0.8420074	-0.19807564	-1.0297375	5.257175	-0.8245875	-0.79376596	-0.6020293	0.34772396
884	-1.968843	1.0071522	0.42312473	0.5232439	-0.8322831	-0.18121174	-0.75515	1.5285875	-0.9937125	-0.8332286	-0.11858847	-0.4476415
885	-1.9092441	0.9895415	0.44045252	0.5247768	-0.82385314	-0.21258631	-1.697025	-0.63085	-0.6692125	-0.69022024	0.023654379	-0.27415678
886	-1.9430926	0.9748244	0.47867224	0.5289748	-0.8108399	-0.24908145	-2.013	-0.246675	-0.3553	-0.5796323	0.084846	0.27986127
887	-1.9982095	0.9517982	0.5311339	0.535684	-0.7974114	-0.27657658	-1.7172375	0.40645	-0.3903625	-0.41783994	0.23472025	0.50796807
888	-2.0598977	0.9064907	0.62099636	0.56326973	-0.7689478	-0.3012708	-0.6721	0.302775	-0.9640125	-0.1651046	0.43255633	0.54510874
889	-2.0628912	0.8833203	0.637278	0.58260804	-0.75351924	-0.30347016	-0.124025	0.1584	-1.244925	-0.01552851	0.47228068	0.48798087
890	-2.0331423	0.83628225	0.6137447	0.62016755	-0.7314932	-0.28218266	0.3122625	0.747725	-0.3553	-0.2319871	0.39582038	0.34048542
891	-2.0041404	0.8217077	0.59548205	0.6214216	-0.736486	-0.26597163	0.7624375	0.5676	0.4098875	-0.5785011	0.32639423	0.33091047
892	-1.9812422	0.8246971	0.5820692	0.6107711	-0.75240606	-0.24527824	1.134925	0.294525	1.110175	-0.796291	0.24884331	0.26015592
893	-1.9580343	0.8446706	0.5639924	0.5873551	-0.77659357	-0.22634849	1.33595	-0.26235	1.682725	-0.7792052	0.23367304	0.20229651
894	-1.9415096	0.8792457	0.54419786	0.5574425	-0.80370325	-0.20648548	1.573275	-0.1211375	1.7337375	-0.43317646	0.12093567	0.03665367
895	-1.9310647	0.9229257	0.5210775	0.5407457	-0.824794	-0.16317539	1.573275	2.748075	1.0410125	0.42378038	-0.23840176	-0.5743323
896	-1.886643	0.96287936	0.4861878	0.55090237	-0.8263538	-0.11385593	-0.3529625	3.7404125	-0.6829625	1.5093423	-0.82613856	-1.1912358
897	-1.7530977	0.94914424	0.4758847	0.6050102	-0.787829	-0.112274855	0.117425	-0.993025	-1.3886125	0.5661366	-0.066605255	-0.07416245
898	-1.7519882	0.9143585	0.47879222	0.6279301	-0.7647367	-0.1421229	-0.144375	-1.51745	-1.226775	0.13812494	0.2513881	-0.30752546
899	-1.7867827	0.8771034	0.4827126	0.6483327	-0.74324095	-0.16301821	0.0738375	-2.2125125	-1.050225	0.21761529	0.35486174	0.20327815
900	-1.8080499	0.8431779	0.47622362	0.6478494	-0.74122167	-0.17377967	0.6985	-0.8078125	0.1225125	-0.08710011	-0.26356432	0.7018072
901	-1.8325835	0.83363354	0.45937714	0.63435364	-0.7547474	-0.16513476	0.95713747	-1.0170875	1.0580626	0.038016364	-1.3814453	0.42120507
902	-1.8243711	0.8491891	0.43646273	0.62235117	-0.76482755	-0.16442367	-0.94985	1.4480125	0.3705625	0.032190103	-1.9296678	-0.9558669
903	-1.8305506	0.8704762	0.43048698	0.6319952	-0.75537103	-0.17121272	-1.3510749	0.53735	-0.63195	-0.65095544	-0.9599195	-0.67516345
